timestamp,accel_x,accel_y,accel_z,gyro_x,gyro_y,gyro_z
1,1.08170036094926,0.153973195892104,-1.50830558720257,0.143883501228798,0.053245327001834,0.48473112925332
2,-0.922483676565104,-0.748580852140156,0.051413442989348,0.667555248756316,0.608452803282578,-0.407057544845748
3,0.270882969168558,-0.0229792951189926,-0.749435287076448,-0.985161556422223,-0.592048719000098,0.0446484531933866
4,0.116224729868203,1.11186491744029,0.0931497705913838,-0.426500734168032,0.688386107299939,-1.48234939993379
5,0.223430099836233,-0.39375986652145,0.159490745858468,0.842035644706026,0.145930301834284,0.521528398978656
6,0.953069530046742,-0.0275543624688777,-1.095219907939,-0.484562336985139,0.933128382692876,0.740558518236643
7,0.225245819094319,1.24954023642672,1.20579028763398,0.0036152253143993,0.3079992191381,-1.20859440408125
8,1.3577649707254,-0.450461107739377,-0.351913423401781,-0.998297244547142,-0.855662288697504,0.865854423288887
9,0.529134108390344,-1.61390994036652,-2.16654906926524,-0.898149923151535,-1.73292006480854,0.682828136552337
10,-3.00080210281936,3.36108262850326,-3.63950135860424,0.101798139224404,-0.478291929647637,0.925586235023682
11,-2.10009002078671,-1.6237315777731,0.339854088124722,0.937623584707326,0.035361193731502,0.608314895678893
12,-12.1247931265272,42.4341927869637,-0.796069845928042,-14.2564002990358,-1.59888316953966,5.83789310014576
13,-6.06633650995736,28.3467139645147,-36.2650643120771,-8.13623041102535,-17.7523703163702,40.6014032796538
14,25.5263788831776,-13.8649798038683,-23.7587011154703,-11.4354445214754,6.13276576253884,2.54961358186009
15,-17.0137413146641,6.33871501576582,8.7218011119334,15.1817963101956,3.05035175594875,4.84982066528146
16,5.02447961640532,-1.87217218277719,-5.19750792624841,-5.5856225929627,-13.8956904094652,-15.6377199695575
17,36.9225452457837,18.2107308259735,18.5904496402309,2.39764714082347,-10.7335991605784,19.1422873763624
18,13.6919531338845,-11.9402112045534,5.01901952647163,3.69965618977163,7.50467709548174,-16.6721485134356
19,14.260663497068,-38.580778621183,-4.21832000065353,12.2165259177923,-16.5787555638055,7.74509740382709
20,21.6986249419976,-16.2507607625385,-8.38401637048361,-2.18647611910278,-6.49604436231596,17.1859739277204
21,1.10226010659339,-42.9202470826273,17.0502535002542,-5.80545527398027,-8.40057426022024,11.9492834002957
22,8.0708755122364,23.498817515996,-3.66828765312566,-15.5674238996257,13.2941093034858,-32.6682702362098
23,12.1550740537484,-0.997184851156932,4.92396069157343,3.84653381402138,12.1358402477981,6.23254508671405
24,-17.8940475843109,-26.996892509265,-22.1310885806398,-3.07383436838569,0.882330571422228,10.5971196416667
25,17.042870098793,-25.6237151943994,34.308832264758,-32.0808993256019,-3.4991752467664,-27.5144831922867
26,10.7324182965319,-23.0162453974026,-33.2936603509246,14.1766155225906,7.96280659899474,-4.83542171368063
27,-25.4793402423499,27.8184166043986,4.94760927174785,-5.97541733084218,-13.7329576375013,-7.62464412500073
28,-41.8578786950768,13.562749251645,-31.6999910160104,18.914760690954,-1.85404573444563,-6.75686756568933
29,16.5107551088314,4.15920107355082,-8.20116283608571,-13.4229794804447,11.1010975939359,-4.78402538208941
30,-4.78692165644341,-22.8195452734394,18.864799203615,-12.3518566860685,17.3616837332416,19.2597938533076
31,1.52156766737671,21.3408536654145,-13.6488273800195,1.19811494309065,11.1124856141399,-24.205133946296
32,-14.4087982147346,8.69382307718495,-23.9178233384609,-26.9569542629523,-13.7391088902558,36.1776252485287
33,0.637985753034809,1.44369603971701,0.00913064323275176,-1.7886331710991,2.00431577082832,1.08180654843263
34,0.173552430271993,0.255666147825677,3.90543788389065,-1.68017690594163,0.0157867853392846,1.57762238763478
35,-1.22923514774412,-0.805965945542697,-1.61424618518475,-1.18620493328706,-0.395867636469546,-0.0126445089546352
36,-1.28367859442699,1.34910632636057,-1.68291262581929,-0.876837034353011,0.905044483890774,-0.380768349007013
37,0.1348394049992,0.819115637478816,0.904157143261367,-0.56714632053618,0.033131275202925,0.68427437234799
38,-0.50431279753131,0.413300337818997,-0.396334616682207,2.3867432264539,1.16465223010308,1.34243013748576
39,2.00645528186409,-1.1201384497959,0.456187130694852,0.841196560322592,-0.213575092679795,-0.236991556354353
40,-0.350481405544543,-2.15212799658932,-1.05220144956575,0.804065798269406,0.699295392545221,0.906140629098043
41,1.09813742548601,-0.376599156273222,-1.75218582783293,0.160825775130669,-0.127913075921696,0.376373641027722
42,-0.923620509914439,0.639312836068454,-0.0830556998345745,-1.60519870452957,-0.838641693457924,0.348755508581353
43,1.9310628039124,1.30710115749782,0.446056449804074,-0.0245137328450979,0.27380523806722,-0.0764425020497272
44,-0.161157173816536,-0.070402125647935,-0.932451123149083,0.32551794424479,-0.113653296578722,-0.424192882975603
45,-2.5085827473123,0.94533128000109,0.163386826848874,0.0301404293422343,-0.77601519825068,0.420587340369231
46,0.0463722574231305,1.15891981315779,0.81569607338438,-0.298149692644257,0.385893803387428,-0.216681923450617
47,0.0901759869162837,0.357855679370275,1.25669858259082,-0.416697756461232,1.31621795867099,-0.790624988794755
48,0.153701394433592,-0.681170237961667,0.1466920103933,-1.12605138765473,0.669806086311551,-0.290822890155622
49,-0.0995347497409353,0.189718228909598,0.343382214865984,1.01681439484164,1.61221142399248,1.40329050043368
50,-1.59531724694753,0.210821873603407,0.287028500530525,-0.468432828092884,-0.867360076790197,-2.12784140927563
51,-2.60551585605503,0.0886596253206971,-0.251205018750669,0.0127271442965951,-1.99519433998476,-0.79692221775094
52,0.355634652753738,-1.54528138330853,-0.998322662879685,0.213604830120553,0.889032723883916,-0.320299475878796
53,-0.859866670066927,-1.2465035779068,1.12850709850447,-0.48426817164059,0.669234647334155,1.43607279594513
54,-0.805833234759686,-0.657601264334824,-0.127083116876644,-0.382391120066371,0.489124376276588,1.05264489552682
55,-0.434496543179467,-0.8861578701823,0.33842748525812,1.24579416086472,-0.239653365587475,0.838418004669547
56,1.17374567332026,1.30425625011929,2.059913181604,1.44223062298619,0.747648303837676,-1.5099631315518
57,0.180257147065443,1.32513297700643,-0.568452862350973,0.46298285188665,-0.418831807655592,-1.09615705444048
58,0.131089532970765,2.76529923512165,0.900018597029768,-0.406507390555242,-1.77003382824486,-0.375911479098773
59,1.89377073370089,-0.732090090697569,1.70526758874713,-0.243103476204343,-0.753161854758306,1.20698981247603
60,0.518377025402862,-0.212302527052301,-0.539206321782142,-0.41987450267057,0.0568997441384453,-0.288224986001109
61,0.572953994672017,-0.320007733060729,-0.821169921766237,1.01227467386775,-0.15024130830273,0.150433913052634
62,-0.252675460247498,-0.834040729267179,-1.39184002499003,-0.618326365601291,-2.41461745927017,-0.290613172636356
63,0.86529207539497,1.36935994270117,-0.844691976582262,-0.566708075776449,0.268473891687191,-0.444990071868654
64,-0.617349405418307,0.946821733214901,-1.49457344146805,-0.248957844074429,1.35462229276226,1.10181113109594
65,0.223596923038087,-1.53854541126629,-1.57938956727716,-0.71790320621902,0.628241380065026,0.0997227991847447
66,-0.756124327740596,-1.94913077201669,-1.56578518581339,1.11829751236888,0.722381047772567,0.449456575473546
67,-4.48132533555676,5.7950196373352,4.42007218707946,1.48970833518266,6.87343321112405,6.149795608207
68,-1.65076096893134,-1.00995693387497,0.0705693378926275,0.434244170695336,0.904850484899638,-0.512761634817221
69,0.589984122171088,1.62016943752601,0.332976523091625,0.21199094781175,1.31341884420868,0.412327791229633
70,-1.13602278282456,-0.320524745251173,0.159628213982224,-1.82437134296844,0.993341507103692,1.52277742775145
71,-0.910583071299399,1.67084094989192,-0.393267506877784,-0.825770339909241,1.19149919633951,0.450583437250953
72,0.22354969358553,0.164299765852814,2.08307531923713,0.752724591189883,0.141303202857954,-0.284152538866432
73,1.55603967913666,-0.259881725866104,0.380081443033738,-0.40445366751174,1.51514259068349,-1.57385797230909
74,0.662776835255049,0.336833767154335,-1.99969313658973,0.765478686789525,0.386169660720571,0.102513301639902
75,-1.10513553790516,-1.77199651448012,1.06813418629419,-1.49193284200633,3.53531061839795,-0.275314829845311
76,-7.81835086582367,9.77184507075003,10.7279722145025,-0.595038943787658,1.46258291477492,0.379240596201988
77,-0.614225763884566,0.768829044196032,-1.14812276959539,0.0735435127137168,0.431403369431278,-1.60032385200009
78,-1.16512206162978,1.68940841009404,1.4970195328883,0.264509988629351,-0.184742275517764,-2.01980730107987
79,-0.0518482977192517,-0.0978575194687876,-1.97127805287715,0.564812028708914,0.0771260576548225,-0.178684012815899
80,-1.67717832572344,-0.943548650287761,-0.226339877502245,0.341141675020404,0.139236294786841,-1.23316486542814
81,-0.282567998106531,-1.31137963983534,-1.15125685824321,-0.535298589495172,0.0733718912278317,-0.342137831602897
82,-2.72116104148906,-0.659481899201562,-0.945041908764912,0.837265374498385,1.17119590917119,0.761546411708449
83,0.886633300964925,-0.960219126331573,-0.57052940045968,0.676138310185514,0.24850906590031,-0.675211515605163
84,-1.24042085211456,0.31445301212243,1.48758866633814,0.219733204666749,1.26681268126804,0.521667197748502
85,0.0474017122087913,0.235781158599629,-0.842273400358594,1.25234420717821,-0.403118380574774,-1.03864097255985
86,-0.966601490673943,-0.303457359827863,-0.66986496158984,1.25719694234914,1.27015701192389,-0.310883824027701
87,-1.30652848990804,-1.23003415216982,-0.79074982561368,-2.09486695324617,-0.931597808297972,0.585634675756129
88,-0.317209252034178,2.73386072278454,0.479449854185513,-0.568791847095097,-1.00309873264908,2.60960969077893
89,-1.16834231011269,0.570434288247168,0.319629292080702,0.782289723638791,-0.36899611137559,0.512303621216505
90,-0.215617128113461,0.653284126563963,-0.471881871643596,-0.164587167727958,1.24559807850121,-0.63811631001012
91,-0.37962802516699,0.573552323089627,0.136475471871794,0.954212271346967,0.535785061973907,-0.427626881207617
92,0.702838596614315,-1.26836691297173,1.40607491029735,1.14184143362097,0.606634396596556,1.17082166077436
93,0.548779541847315,-1.8152361944839,0.99512765867316,-0.501696429435708,-0.0985082010918,1.79001906936267
94,-2.44200402256676,-1.0837634466071,1.76512927627603,0.687849989333888,-0.107917438504451,0.591528172838035
95,-2.40754453106431,0.0307388685720263,-1.47586764108084,-1.20979338041508,-0.230023917562414,0.719943625557603
96,0.69497324507106,-1.65647238865743,-0.323665391082158,-0.00991306062335599,0.740418240531153,0.194217652005009
97,-0.954430537153679,-1.19409437356519,1.87655213403894,0.667441580981382,0.170433229698442,-1.98558968688036
98,-1.24355381775173,0.489567265469446,0.148022981727538,-0.146838414374697,-1.38769903203966,-0.682115298992859
99,0.599668833383442,-1.05876848632535,-1.09452962854956,0.282184322804413,1.0572350409705,0.627109635558564
100,0.413743942574725,-0.679249190287689,1.43379760522828,1.04171619500802,1.28402807262789,-0.468630292050008
101,-1.17277471263516,1.0038432586745,1.01388787610218,0.627631044380136,0.0336162328895022,0.5205648942778
102,-0.751633037675803,0.128493952691834,1.36743779151899,0.470078141620733,-0.146557845580219,-0.883424855323927
103,-0.509834565675954,0.21116652335745,2.64988012356438,0.0404882367714136,-1.16327186687136,0.994425853042641
104,-0.218674023878529,2.02765683081618,0.0966230491134397,-0.106905216719585,-1.23175265462096,-0.977165771680516
105,-1.39944183311881,-0.350311747259422,2.20510429911551,-1.65695108960221,-0.458101051980662,-0.714150325195902
106,1.55238884660587,-0.485812864860119,-1.98004177617376,1.69670965577158,-0.120059042167064,-0.268299934508434
107,-0.227510394319439,0.422044047598304,0.966658498075324,0.899360503462901,0.0953724280898494,1.10822395431597
108,-1.49368404704878,-1.10872033902465,-0.131500773874709,0.57064217394296,-0.663064524372223,-0.52403893711688
109,0.8118859478088,-0.793398480436489,-2.20389016467123,-0.476846651842218,1.87293234318643,0.821243093947384
110,2.08613508300599,1.06948205428632,-0.4461092252632,0.631774402411584,1.56419111696633,1.2065078299558
111,-0.625474715518695,1.74007775257391,-0.812365186058499,1.52018919094796,0.759568072485739,1.35712613264049
112,0.460890958677733,-0.433263578133263,-0.392946103871312,-0.890172020627228,1.09331919075771,1.8797567042647
113,0.562961684664514,-0.157272474288157,-0.928927868525652,-1.16498874743073,-0.252792653096423,-1.5929375884969
114,-0.66316564751729,-1.99058015240189,-0.677631848319867,-0.915393943139514,1.48767701242074,-0.623058727875491
115,-0.818511444356831,-1.5073180699174,-0.914799483922131,-2.34217986575202,-2.83307365633913,-0.473023587755004
116,0.290166452407582,0.269041812996569,-1.07639556561023,-2.39083454711526,2.81881374682733,-0.451876873471874
117,0.469329698370565,-2.2408949950716,-1.1645013346398,0.148221247283491,-1.50880826519954,-0.240632308720566
118,0.51608820063237,0.857144641832029,0.110100230513794,0.413879029753306,0.275700440900795,-0.17935303256347
119,3.01966643460634,-0.527081226703102,-0.0609723579818561,0.335609015914986,-1.48054315596213,-0.21698195011759
120,-1.68949539141963,1.22811043498913,1.49157430990772,-1.10414238985358,0.426542312308891,-0.549774805787181
121,0.514522443366947,-0.520737573799342,0.563913790720507,0.843145304742381,1.24694431803717,1.15312343545801
122,1.34056895501104,0.0183903010719066,-0.0127122392118446,-1.36894912951101,-1.84970711014484,-0.786700325507395
123,-0.829264431964389,1.87816140580623,-0.14719988467438,0.176993387736385,0.290846321259536,0.62599545510675
124,-1.46859783200683,-0.0212738995684414,0.8060061958059,-1.52970393181869,0.611174463975056,0.936125903179354
125,-0.436028203505267,0.103739379573994,0.875372197540554,-0.0129429939625537,-0.635512202721689,1.93199625953268
126,0.144341944743909,0.334829231570766,-0.319202126002614,-0.731403140388835,-0.566795881736523,0.355898867603244
127,-0.455166311390232,-0.639471519368241,-1.56398759727607,0.219634897789372,-1.41150684246732,1.05413133869136
128,-0.251733981254631,0.718703867940724,-0.343629488707873,-0.926231035011574,-0.923106452587317,-0.603339493219908
129,-1.72423660318822,0.838227873480677,1.77599612857849,-0.373690199222559,-0.709645514790416,-0.750786160848098
130,0.343530632913754,-0.0510289054302066,1.75959120679311,0.575290645250698,-2.7117943975097,-1.03766485195527
131,-0.913682753623401,0.174051642140788,1.45758223131738,1.70372203391827,0.630653793491028,-0.0962038702196813
132,0.314195090362849,1.11587118405674,1.7250124758104,-1.6863968984282,-1.20782864290597,-0.196867101747601
133,-0.221933053347208,0.462323327448907,0.0360731661931553,-0.0461147249418183,-1.3140590503179,-0.569095459054109
134,-27.3941194308519,23.6411578693092,13.6104344271386,-19.9551961889926,-0.136832389508333,-10.9191640539299
135,11.696372242784,14.8349708292552,-22.0684103059701,0.866192157520281,4.74208851967636,13.3632030259225
136,-4.35038227190486,19.4249867236619,-30.4655673775414,-11.4289812257193,7.49125775306399,14.7486730445067
137,21.534538100869,11.7118772528571,7.03921716660262,13.464822621859,23.8849674939758,-8.76275665433583
138,-14.6891741352507,-5.89871288497,-10.5491695436556,-10.7795739890922,8.72501158294859,8.34310778190542
139,-1.62798232539836,28.7248373248839,24.1462491222818,2.09728170452183,22.5635652406664,14.7030523123716
140,26.1756511686062,4.26486896373065,-15.8667517708319,24.7141197985939,-11.5988431995043,8.78776841385148
141,-10.8654295554478,-3.4839250309462,13.3836575279425,14.6611148085943,3.20312876737262,13.3322507855276
142,-9.97538824974764,5.77209101519253,34.9472193677688,22.4622718576001,19.9437467201291,-1.67242608372322
143,-41.6933043143352,-40.1016288136228,-21.436603480879,33.1781973712091,3.10872150808836,-13.0916331516015
144,-20.9325881008154,12.2203847657749,-1.33650527107191,-19.9775961382272,-21.6788447651312,11.2929245581876
145,5.28082355339704,3.65641198189418,5.4534515941641,3.81891269433906,-11.2650194894875,-20.2827766269516
146,-43.385998116643,24.7845384117862,-25.7604795221469,16.1702471437775,9.65500337159745,-4.20620773419935
147,13.6152876249304,-3.63563922574138,13.6610046489893,-16.9641096355594,-28.3024243453816,5.56803243555411
148,10.1482280904604,1.77924407570012,-18.2427047589893,2.09997422464901,-13.3768372678606,17.4334548585517
149,-18.1461418626587,-9.28030805698108,-8.47000458821062,-12.9437449375187,2.75258348946902,-21.7996500175166
150,-12.1125910345316,-31.2174946407405,-16.4692483290301,8.9249646716539,9.05680696068884,13.1278966153174
151,-33.0495844339787,3.17551132843472,9.15213796992278,-9.45634919722172,-0.575106185830741,10.5603390561216
152,-6.40201862469432,17.1147843495637,54.8727254827742,-2.2533009140385,38.144499647506,-2.86602659753446
153,-19.040433138435,-21.2154755651777,18.1707586239245,18.0916389950532,38.1731672490386,14.0149372411742
154,1.30337426888433,-10.1238018124666,-49.580752955738,-1.98002048048033,29.7763904958867,17.4024254376
155,-34.3888564061607,-11.0753602767749,34.5905665878466,11.3704185861307,6.32840313260315,21.1555356610807
156,-14.9797390883322,-24.5210205697924,-2.67800847571919,0.883963225846841,11.7428110237917,17.6599358189792
157,6.31842961087566,10.5923271723024,-10.9249485152316,-30.2035947426009,-12.8789071417426,-1.30866747295072
158,-19.8097496586903,19.5732054090255,-17.4408263406436,13.2469211292418,-2.4988630713766,11.2518957168569
159,-13.2583996942929,5.48655614233045,19.8958098326054,11.2199903564965,19.4537519155059,12.5625656634899
160,39.5585706101736,-5.21407539023908,0.581316335964517,2.40793813750954,14.2114354583318,-19.369930134785
161,27.4064584572065,3.69750580527139,3.3074393811312,-10.547624358043,-1.22468673178749,8.11525321492543
162,11.3492747488916,5.24862251832317,14.7002376766284,2.59530064570222,-5.69162863799012,4.59133209392649
163,-25.5106712384232,-6.96789481071108,49.6514084141064,-9.84305091579713,25.8284051752531,-31.0142233234579
164,18.2084870868489,3.69908157865305,0.980960385941519,-4.53576083887536,-18.4633604222738,13.8152703891808
165,-7.28581744348791,22.7208434171053,3.84349253258107,-24.3883322238622,-37.6914975686998,-5.25962273878897
166,23.1557484198047,23.7969636363309,-11.7888986946517,3.70957918647145,7.08163431932233,-8.63632531549998
167,-14.849802342108,16.6424874566362,-9.24883465430611,10.0413362592174,-3.31922802092875,-9.78407063064775
168,-13.5009579928464,36.047931192413,-33.0475238970024,-8.6983828557252,24.6294932084791,8.25815955143969
169,-7.76896439229942,-28.9983688115495,-11.244473864823,-4.02266013265949,-6.09341671561525,14.825987672003
170,28.6661371374634,1.01071711427217,-22.326808292626,-2.82366804300259,-24.5007610916873,-9.90783251481803
171,1.91290294741353,9.04935083293198,-16.9124287751287,-8.15309978496906,15.4351967088375,4.98010040779622
172,6.62152723100597,27.2968672813019,6.50180967702984,-6.02423266788392,-7.1823938265333,7.62923001974997
173,13.6781928636353,6.90316723323873,1.53623561567572,-15.4657987935314,-17.8217016245304,-17.2418554606973
174,0.383614558056467,-0.866280300426237,-0.650452493869421,-1.04395335706364,-0.319182899039785,0.734285426653539
175,0.0863925118836698,0.204172739769034,1.33773398245634,-1.70275460374108,-1.00454484649742,1.63575569672354
176,-0.36239044458364,-0.690515300774152,0.427835495710159,0.690723682386615,2.25993145998557,1.17571705379297
177,-1.33519417950154,-0.882320356020815,0.924838050650152,0.156651889924644,1.29237516885808,0.154535942577702
178,-2.01542723488104,1.38595089976056,1.42379228545321,-0.662846636915886,0.559044694289746,0.424559712449989
179,-0.0400554520199108,0.187863927936276,2.09474586787642,0.91805335969026,-0.522601720488796,-1.44642053014296
180,0.0466579296352257,0.53237741096768,-0.712938431384382,-1.93573520509951,-0.252636358894742,1.50838560005803
181,0.843060592900677,-0.79470389883677,-0.136869535300304,-1.31994751473428,1.0196392507669,-0.834071495677241
182,-0.0814651179332938,-0.163655039133788,1.27374574367506,0.403073287679077,0.371404457362292,0.100443386600414
183,0.0702039254875634,-1.23964289137796,0.567913557133665,0.144372308747123,-2.17815860521524,-0.905893752061589
184,-0.738700643964235,-0.518203233836994,0.741019974791308,2.2157959455758,-1.46591139485047,-0.0443770385175027
185,-2.4911609660202,-0.516158722615149,-2.12683975193617,-0.463142522540045,-1.78857283149111,0.0396228162413753
186,-1.39369982050827,0.0342075310101034,-0.462291688944711,0.758491429665576,0.438607323037422,-1.54865275145379
187,1.10638117754668,1.55851833234562,0.11616664890671,1.19813089732567,0.37916326859857,-0.614345533408354
188,0.519520276306988,0.412228007502928,-0.553574049605407,0.0236959907094193,-0.446276844597321,-0.186853257562806
189,2.02763818349648,-1.9610129716542,-0.971382491991772,-1.14455193458197,0.626708611581669,0.521995626621478
190,-0.855493404298398,-0.909296794326478,1.70873312085452,0.33772914444875,0.59279248427773,0.620888990161779
191,1.59383404998195,-1.33958183511209,-2.12957552555257,0.593373400563601,-0.395269795528856,0.0627439292817848
192,1.03793003121744,-0.746366434645511,-0.0849380036315545,-1.072239268859,0.0567084698454954,2.59184698016632
193,-1.49325505215031,1.77112937915221,0.0834119155305417,-1.67179736729913,-1.03513234207765,0.0387669081023572
194,0.235896370067706,0.99216047137703,-0.823930604940526,-1.2036661874829,-1.0133203288232,0.59154447639312
195,-21.2882528491118,-24.4033352707816,3.48056581083653,-1.24640584187157,0.877393066081752,0.457462749561313
196,0.569148943155519,-0.959884378500872,1.27498051613174,-0.796286539537373,0.51684225012364,0.918216506580341
197,-0.397864803198359,0.192505203398107,0.404792637487442,-1.00305746994641,0.706883736210791,0.673678695708791
198,-0.88024329529633,0.774201823269506,0.332488476303218,-1.15257479997807,1.35880893143444,-0.283314783780027
199,-1.87930279749453,-0.123567244609063,0.273340016598049,0.178224235472759,1.27311461076588,-0.290489810199471
200,-0.146181711196658,1.20192233095907,1.16282950330676,0.644327653753973,-0.278389806565417,-0.633044206201841
201,0.324289874510816,0.83718127673631,1.38967331917696,-2.01559664449042,0.619046023007902,1.02630126788827
202,-0.902386219235447,0.917019137276569,-0.155241838642199,0.60479899858368,-2.67420970724842,-0.498906940258179
203,-0.654449882781351,0.894932326179131,-0.251792286218552,0.339547015018007,-0.0130866399126634,0.373135476586262
204,-0.546024961204196,0.199985261811778,0.904819472896156,0.558442279385325,-0.805740138556612,0.40070267153816
205,-2.08259952238608,-0.566494418541931,-1.43781922401425,0.796792758099982,-0.520170299080534,0.0656696417319419
206,-1.0962586502524,-3.87129509798714,0.946849622949703,-0.278823755736202,-0.0428385075453201,-0.236873853738458
207,-0.261482352657265,-0.0212550579216067,1.03055047967108,-0.464060106440616,-0.775699006683719,-0.778280644877207
208,0.68764091085835,-1.49365355789479,1.00593299473327,-1.03470450886898,2.57683369734641,-1.05788535081912
209,0.561498641560634,0.136175870254267,1.14745972496967,0.0951672186378974,0.423568945929629,1.04680738994898
210,1.27874733316644,0.022178497971329,0.48711152927453,-0.271796418310925,1.3695102368273,0.157864081956358
211,-1.20594108308912,0.416824071487969,1.72919991677932,-1.7801839719232,1.37818015617566,-0.0639810474241562
212,-0.502662055129433,-0.456846740498963,-0.404854721914175,0.682371872588902,0.450208642832401,0.213632726010622
213,1.08757237001892,-0.660710058111942,-1.08641770526009,-1.63706031394659,1.05661170243475,-0.69798596612679
214,0.131143135259503,-3.72689376411461,0.21108718960289,-1.47494674526183,-1.26222510008926,0.55409000591723
215,1.05949688763412,0.537690222858142,-0.868107447536079,0.516522712561152,-0.360417876749065,-0.827484845991131
216,0.63577780621749,0.194853413679965,-0.221078072236081,-0.165924439906364,-0.855655512907136,-0.933363765310699
217,-1.8078752840927,-0.430902158981242,-1.44143400153746,-0.396244104419427,0.866379482371736,1.03931992599101
218,-0.956587831055448,0.22213311777353,-0.402419353724327,0.840157133126176,1.17320124729952,0.136462891301522
219,2.06369012278461,1.55020343075161,-47.5092833806813,-4.86992605913466,18.6486480782879,-5.36314200250874
220,19.8908051702623,0.384033746428021,-3.75507276637191,5.96308659634234,24.3062015217995,1.22153863985209
221,36.3626853953442,-7.60994226615993,-25.3382744451343,15.4225808503246,6.87352064189044,22.8934709173341
222,41.5239277760601,15.6589977866483,-33.4689268092783,14.0452939521505,13.5693472463519,-10.7758410909993
223,-1.45543481118006,34.928712739508,-27.4528625639804,7.15209752205603,12.0041859182942,-4.17924232642086
224,11.5300939757118,-8.9275500073389,30.4215153430753,-14.4312179206028,16.235134130782,-0.770644002865703
225,-8.11842927078609,1.64507758214012,-24.6330492296614,3.96148408051366,-23.6077814734381,-12.9237410064193
226,-48.8821631346154,18.4831733360533,-13.4326201904663,18.7705435514864,-10.7246540091917,-4.40430833963512
227,4.30729616656844,-14.2065848450947,-4.3832221904683,-22.6238496769157,-12.8281292573486,-8.42172994844141
228,-5.068810743263,21.8969032948806,-26.6642950151791,-10.5446527369609,-10.0081141275204,0.252435224303351
229,-11.8147998010843,-17.5035539173837,-56.5124130620641,-4.27910632325667,-1.65063110339666,-6.85800111413896
230,12.7537691188676,-11.379623287157,9.14646636562344,19.5786711730516,16.2031467601666,16.4854130103718
231,12.3370846267274,15.8328096378368,7.44614172718857,-34.4300881184451,15.9344156918728,-5.53400234621131
232,-36.4029933342989,26.1876582420288,5.31363521524831,9.25949742471452,9.82312093622065,-10.9398476714934
233,34.8925707656086,-13.8114849586697,11.3811502145515,-26.7774059819978,-19.3827380960731,-16.0201625479602
234,5.5734377744043,-2.95839190174933,-19.6013247840309,19.0574686001164,-0.460002655070525,-9.48587796922978
235,-1.9580870455769,24.6090687807938,14.5036299335648,16.2655138769777,-6.00628163403849,-6.67861940224591
236,4.30084998458647,-8.09573725745919,-36.3945574205256,1.62091007849304,12.3262553527873,8.24449629336773
237,-20.5556254639714,-22.0678959840154,-7.16430716520781,3.45232896370979,15.8890334550514,22.2170448058647
238,-12.546085765631,-18.7418973438563,6.63701972320132,-13.0697647272852,42.3977714136927,13.970156181903
239,-3.62799087723306,0.795005635941691,-0.158109892819682,-1.43873616144589,4.69853572632727,-14.5151249289771
240,1.63863426167742,-1.89558266643359,1.10701621470678,1.43392284941602,0.129667147531261,-1.00788120137272
241,-0.767012977709534,0.228330494051711,-1.11447091566274,1.90729517557615,0.059017952792553,0.190642552220851
242,0.347946673833727,1.84389406473839,0.954069666111642,-0.811207333773329,1.96084239154393,0.378944024032636
243,0.256891848616752,0.442559210940434,0.344106818916661,-0.837079435599012,-1.70217923856497,-0.851426248640438
244,0.640743434030373,-0.780688800409305,0.650994556847569,2.03044851099799,-0.287783328441654,0.914552085933663
245,0.157402839889171,1.57734148629877,1.65746015092127,0.779104342403609,-1.49278200697741,0.244563534959329
246,-0.618007265110094,0.359548869346633,-0.71179933915511,0.22861700482935,1.25166396257927,-0.513767365682349
247,1.44944060814455,-0.885304803467888,-2.16959343512845,0.383423589024262,-0.808522858733078,-0.81875003998918
248,0.934435592819831,1.07012296342215,-0.217683314396551,-1.17835353209379,-2.28034349057443,-0.743946950394487
249,0.286884794984804,-0.1617330778476,-1.06691028392891,0.294077495076545,-0.648367235123009,2.08717568549032
250,1.60765663670542,0.285832166630995,0.494721683227834,-1.05100110245898,-1.31354568549672,-0.536115421943922
251,1.67427863170695,1.54936472359705,-0.234557776213298,-1.54450627485541,0.719466095031181,-0.574078799941275
252,1.04300311400239,-0.301229589122659,-0.321078397526112,-0.680126710259342,-0.858697847521488,0.673227886620112
253,-0.262732875832864,0.791890548094032,1.58889811263221,-0.735993562532456,-0.805279514273743,-1.61794195425931
254,-0.131596958456067,0.0965206888175404,0.824954921784727,1.89387720360937,0.445011223249208,-1.35938759086968
255,-1.21473464198011,1.08838152941282,0.229853807605401,-1.53353313029449,0.0246955802056356,1.23802439077044
256,1.54347753135803,-1.76145484210311,-5.42960423492583,1.38348392292644,1.56194179833504,1.02046363371557
257,1.05956062503213,0.653071443701984,-0.608173367126192,-1.49506485463387,0.918518462928997,-1.70067877776655
258,-1.34204427254466,-0.0278242739497009,1.00989168771918,-0.84675058793145,0.812872422441905,-0.643668824536429
259,-0.373424512766759,-0.884425276080842,-1.0922876643409,-0.129551285592118,0.0561035478393362,-1.0873819895264
260,1.07118278082306,0.71699518931324,-1.04463403905401,0.735711129985302,-0.737275115850716,-1.8830789946375
261,0.314259728019506,-0.924581952810922,-0.944700898643806,0.817210321211996,-0.312890889455356,1.24615084542887
262,0.369675857775348,-0.237379842858486,1.42208742822614,1.17889765285855,-0.539421169691016,0.567997641731271
263,1.86380071960546,0.248236416458795,-2.10841492415002,-0.0323724046540069,0.654200249377317,2.63863211401686
264,-0.939817679711288,0.915840673581889,-1.10114266358682,-0.206334769662397,-1.30879272008826,0.676433391927281
265,-0.649428508294784,0.341031093124111,0.423945376071459,-1.37407840143458,-0.641784638373464,1.2668437690547
266,-0.809833586392663,-0.900818016195627,0.130127325984849,0.556701522364683,-1.54145885676551,-1.18225189509165
267,-0.965834605446509,1.95270629345072,-1.14766206009518,0.883899968629704,-1.18100746853313,-1.08418856154989
268,0.223121807711383,0.663130405763317,0.615980491416866,0.242191296974166,0.269466044722009,0.74369178812652
269,0.989530544207112,-1.90223284089927,-0.719174084754365,0.556194844645359,0.427489519658117,1.18958826011111
270,-4.74857516803982,15.1432334205602,13.2129680139956,-0.989228406518296,0.664524214979822,-1.58822355026801
271,-0.00460319361149405,-0.406788496777553,0.627344268356433,-0.038039320227342,0.79435819122004,-1.61300357247056
272,1.63686850903681,-1.74519740751155,2.04361855723587,-0.229133759644244,-1.03703586236927,0.182370528361537
273,0.0422686829802045,-1.3081270616347,1.09753386573486,-0.635577208645912,1.15856196379204,-0.285114007424887
274,0.56435993435436,0.391678905111446,0.428350684324091,-0.297921789331373,-0.0201247095239079,-0.751272966515131
275,-0.0760709919724358,0.771419486419035,-0.334548324271916,-0.563514911736853,-1.57915055084078,0.86677219136643
276,-10.4955131665859,-1.00420058252131,-2.23671408307295,-0.237612648820309,1.70953831777553,-0.935728675551338
277,0.0481179160416254,-0.457819217922576,-0.707066060227632,0.830674603880212,1.35325549850295,-1.24047862862483
278,0.512536631316966,0.185520020960702,0.0193095792406278,1.90913444186475,-0.157967240964418,0.00332802514256421
279,-1.53785602451057,0.310195746983809,0.308869287289057,1.45735705516655,-1.14306888418622,-0.629894111828294
280,-0.658414346820166,1.28244076233192,-0.798015395696325,-1.80042592101019,0.246196389895698,0.172768397606738
281,1.30097128658622,0.606322347655461,-0.896412340354771,1.91617384619958,0.44643556421871,0.430873258491387
282,0.262825954351514,0.407386051878272,1.30293901963,-0.59869249628417,-0.705113042995644,-0.492873965808192
283,-0.190226440128268,-0.600905722503298,-1.7424760502874,1.46735234728329,-2.59417598708563,1.33837852067375
284,1.65173898697133,-2.59722986455193,0.137486565705464,0.395513810648308,0.348914645991296,-0.102377610329219
285,0.526005735985847,-0.344396189452315,-1.05047565316588,-0.403225452790288,-0.211927803562076,0.191360877095403
286,-0.661535975193534,1.32913622186013,0.528384514636677,0.245530233051097,-0.559078815473646,-1.05443802978967
287,1.01365309311918,1.59602348999695,0.481489935720928,-0.711219533252125,0.692078334894393,0.780780416763267
288,0.850778920621998,0.915214377050696,-0.466329460823582,-1.4448551304109,0.0423720150267917,0.305041947508464
289,0.111453653022761,-0.134928874991647,-1.16495590259809,-0.0530507721312613,-0.326645783541005,-0.159070287749856
290,1.04440964684499,-1.30884015901749,-1.0899877583935,1.55351847623029,0.0422539079792855,0.273751488221892
291,1.2705027648153,-1.36435819483586,0.047202489004987,-2.19540904009438,0.704232527764508,-0.738487455081305
292,1.58290766090659,-1.06929160516588,-0.760005436578363,1.18240608424952,0.0266711933843325,-0.181980756185647
293,-1.02736311222674,-1.46366620808435,-0.111285990670803,-1.34040448755317,-0.0183890105907665,0.395812496366372
294,-0.118588437916992,-1.98820186069003,0.0391820169175458,1.02197743162362,0.29203130190709,0.547700973032577
295,-0.181375697725686,-0.0219655179015609,-1.03675804675879,-1.35035592576702,-0.962941134702224,0.382822740161153
296,-1.92351015535006,2.14470209994914,-1.73111740381566,-0.368687867412599,-0.853962691549067,0.194861652273672
297,-1.38985671216882,-0.926329153838351,2.22131983137242,0.778282247966985,-1.16237850556147,1.05671301279271
298,1.32222216856004,0.434739503017913,-0.620089133878522,1.32438979393729,0.370701482682977,0.274389421733836
299,1.17041749130618,1.00020093807194,-0.136587374532749,0.239251837855713,0.104256135324169,0.693725262562452
300,-0.448201983458998,0.0199555203783127,0.56696586785043,1.31442106289538,-1.31227666357878,0.0667632562113277
301,-0.636307371419181,-0.259203245932885,0.112884423303974,-0.243548354313195,1.87989351174045,0.0225730193411658
302,-0.0764543902494534,-0.14094622761225,1.95655717652711,1.6678939580267,-0.933126332396312,-1.86589847539686
303,-0.400384811845284,-0.686841179718716,-1.91285061051236,-0.0991716674831708,0.508109062097709,-0.426124958784289
304,1.1368868800389,-1.21068699742718,-0.488785075782083,0.118743961834136,-0.337859746287357,-0.285314761905649
305,-0.592140687231369,0.0192655666707234,1.04901950759638,1.08415039537636,-0.233908555229181,1.09570249903235
306,-2.09485977950281,1.07619029624811,0.260298869816805,-1.613064464574,-1.25337946776622,1.00043968564686
307,1.85191259300536,-0.206720826274493,-0.213832506811641,1.73414968888253,1.57438676223129,-1.55443942129964
308,-0.603848012950955,0.82610724820274,0.0422359716113243,1.29431589920362,1.83579063553819,-1.27210454792854
309,-1.5199009040579,0.458457265685176,1.65316177152858,-0.772478643617051,0.0954765675089119,-1.06271079403252
310,-0.619215546503766,-0.287981800014195,1.79983692599218,0.588140133201775,0.0746347640956577,0.173210801024752
311,0.0686961906669626,-1.01051143360491,0.506071705423103,-0.248078707996175,-1.16402620183751,-0.279723793098587
312,0.147201315692201,1.03882994504994,1.01814500920577,1.40912920040182,0.0272671242083895,-2.31290949180172
313,-0.714961398349612,0.864945510985459,0.759517571627294,-1.4728898114767,-0.0333636135107728,0.0866827261837134
314,0.968774742105963,-1.64502705232323,0.61547647571508,-1.38680700594111,1.60279855201993,-0.251998242386753
315,1.55727433331721,0.365863591441736,-0.884092237492377,-2.24547584098289,1.58717420655678,-0.606831920726637
316,1.26660170834548,-0.0888327195981014,0.602103538171901,-0.062165714520466,0.234131332812101,-1.1936360201957
317,-0.585541902394162,0.349914439458835,0.0619747071953668,0.537959177351513,-0.424086483885397,-0.68726163428575
318,-1.66886544442508,0.956818969312154,-0.382116679753116,1.68847862095782,-1.89299597552155,-1.07753786853377
319,17.4815549782637,6.58447524717342,0.701845809340249,0.695852374652201,0.330706627897504,-1.63471966004794
320,-1.62734402306235,-8.11343599720927,3.99924528348001,-0.265019992463107,-1.66303245414359,-0.353928412223297
321,0.163400376012011,-0.0155175662286815,-0.641775215390526,-0.848648152872882,-0.693488585638019,-0.763481561575388
322,-0.575013798692506,0.00772841130507816,1.87379465942553,-0.213589462540883,-0.582829898735889,0.259626081328786
323,0.580984164032743,0.274276811638046,0.391181111256173,-0.593797147464044,0.100885850905321,0.26069227711558
324,-0.547546808710253,-0.938942397926323,0.236417242511386,0.440413928704571,-1.19427652251136,0.862284033983304
325,-0.404614403328273,-0.238685644022576,-0.499030567809208,1.43903900800857,0.354686029255584,0.044438677965591
326,1.09655166432399,0.511890988226723,-0.616990909401532,-0.376627916154842,-0.0968260917049095,0.44833374907438
327,1.70752301710123,-0.579865691852853,0.128979504145161,0.989310549121175,-0.141505303158636,-0.312160044138052
328,-0.401866267986537,0.943781198303324,-0.504987323007004,0.499448144147638,0.0557252695106831,1.36571760773555
329,1.58183051645858,0.276246626048983,0.696249406289407,1.85033314164188,0.689378860227388,0.386031269202347
330,0.72336067325808,-0.318191736705469,-0.772457541505057,-1.59402675596504,1.0441621124379,0.494616825617542
331,0.049933388704962,0.279996993477012,1.73364441605327,1.02778945070369,-0.820902900260755,-0.269965300138911
332,0.33235060557755,-1.11371865197198,-0.0472487211825267,0.691790562210668,-1.07347951418832,-0.353031151599758
333,-0.0975214216254251,-0.320196518414331,-1.28708541054717,0.121449287091536,0.0852496647865283,-1.1557990926104
334,1.03936195827549,1.8322889728099,-0.741828992452154,-1.81033939237937,-1.10145499084169,1.56663623482722
335,0.649631392936513,1.55641358451916,0.0791319498195171,-1.01489916696621,0.584367601329215,-0.213944114367074
336,1.69363960177809,0.968413026911006,1.31926761522907,-0.766164912167775,0.0547254303909546,-1.71381423919251
337,0.221065224493344,0.15257404371487,-0.227757539287845,-0.280186718403909,-0.445264662304933,0.231974386904964
338,0.0706900647882091,0.468315186089039,1.4537381789746,1.37478258698305,0.100849824285978,0.172224989396247
339,-0.678206800305613,-0.22985997571077,-0.670156202006431,0.0353838507614968,1.35083836598823,-0.76891664134175
340,-0.0669843451346121,-1.10304179332984,-0.425992492497589,-0.0235651172209229,-0.870614169914877,-0.759140893763538
341,0.63385813040382,1.86371353022522,-0.742123698353216,-0.31970851574172,-0.0888223606209376,-1.40968231228589
342,0.106932104380551,-0.377723460664663,0.404125986139283,-0.259475942716244,-1.40202640505203,2.06004521550781
343,3.32221716558282,0.342956349522606,0.0916038765941684,-0.203039385818864,0.208902305091694,1.2065865607839
344,-0.55306090626134,0.118033674452485,1.63089047110364,0.507668950912127,0.0694248250745725,0.0894849591294893
345,0.110799494333066,-0.0716296330045096,-1.02920173604373,1.68705764086012,-0.324118124669187,2.14749613468565
346,1.60847306978038,-0.380897461751235,-2.60750840325871,1.56207642719423,-0.0662960621618285,0.569784933564469
347,1.71661122163865,1.63241803416038,-0.0302819983859725,-0.0983666511228097,1.01295602115319,-0.81756517009693
348,1.56926814636672,0.297054180021323,-2.42398496716425,-0.610056193369186,0.783586869397365,0.299650926091413
349,0.509940647156084,-1.05944671391979,0.536254706896761,-0.508679202832046,-0.363020289431933,0.451926452606271
350,0.453627967242628,1.63806966288921,0.497164362350067,0.56033269551891,1.2743247701423,1.48284541013671
351,-0.839596210788287,0.890595999263521,-1.78601706547094,-1.31929107564724,-0.657308418980931,1.08388819253572
352,1.26078048648916,0.157145218923687,1.95117098483884,0.24736610858269,1.46728256405025,-0.254452531438224
353,0.845296142042411,0.0218164227027911,0.131241556135677,0.104472320469068,-1.11666577086415,0.431854615476618
354,2.34204492506078,-0.845816644636008,0.337588186048765,0.241969137996554,0.542247181746254,-0.977271871857521
355,1.14871401963206,1.11991423779154,0.306782204349927,1.44141720766692,-0.739003968549623,-1.43455388463508
356,-0.0985361383611072,-0.490175798503079,-1.28739139156325,1.60228928127452,0.409792603181848,-0.699193421244133
357,-0.569029901152459,-1.99565998469845,0.246544483536136,-0.793792085278281,0.631718589520601,0.375506345635907
358,-0.552974436172397,-0.9024707590405,-2.85396521900549,1.60565124832496,-1.56491722378371,0.559326170338953
359,0.593459924674959,1.70073396915125,-1.93357509795113,-0.551616643932397,1.24082546117768,0.926446236054701
360,1.29824302527608,1.83244739134897,-3.63127525022674,0.985652384353865,0.763154422365551,-0.254594900653671
361,-0.182514273000606,0.556796910456307,-1.17034413990152,-0.391373651249696,-0.308653475395022,-1.87971785735619
362,0.379136639740442,-1.05625257511383,-0.0536476797784589,1.64417276151035,0.320961635926471,-0.337241076731982
363,0.201028144046238,-0.816596994877429,-0.353562611160906,-0.203170753332346,1.77126772575572,-0.809506248825433
364,-0.511086103864664,-0.43202985530748,-0.501458369631622,0.661205150813469,2.84891069008656,-1.64739356481773
365,-2.50411267728074,-0.711935817984725,-0.245138043455842,0.0658435888802587,-1.88171306080106,-0.587200506445696
366,-0.467765297823302,1.62305780894548,-0.391349412614436,-1.97787571659359,1.73389258057358,-0.263591233968191
367,-0.986911302061047,-0.630459643040954,-0.505860421752048,0.332616272215397,-0.609128011194291,0.35316337192583
368,-0.377076028414639,0.795518549393462,0.785027699496856,0.181490738121484,0.369127345390321,-1.55636463157199
369,-0.455132681640177,-0.909740249040091,1.66478141343618,-0.993262631780504,-0.0949987720819303,1.15039423525715
370,1.40528072207812,-1.02578146706927,-0.590333672196468,1.2979693363882,-1.65667577802215,-0.475321509681945
371,-1.04138429717193,-0.737896998809113,1.9402377200798,0.619835010628976,-0.438220238808541,0.179743206692936
372,-1.1669588950096,0.966341255812787,-1.17008439102611,0.409274920450024,-0.0396353652133138,-0.181092974578724
373,0.112198940051611,-0.374284123079391,-0.316222349548942,-0.971260990625907,0.263138119533135,-0.36068848475845
374,-0.554017850021569,2.52192527102475,-0.807818700290128,1.22875030792103,-0.450964395002113,-0.61027148334608
375,0.283040978320951,-0.613272202934034,0.230424396519704,-1.39936416615498,0.643429219048319,-0.723062211549602
376,-1.16446968894515,-1.43196988538167,0.492908958480993,0.376589765768677,0.551870790020561,-0.681243475829848
377,0.54159234333316,-1.5888029892601,1.43662336805577,1.9525534984971,-0.414424992283598,-0.375054290583513
378,-0.232435549071954,-0.0440576437341648,0.356435210037937,0.340830575354368,0.42849288141066,-1.30507391898491
379,-1.81651335186396,1.00297904068535,0.337449110799174,1.31048879615172,-0.817405982827326,-0.470734482660637
380,1.71830815415272,-0.127092169635175,1.62799902485554,-0.278576922438344,-1.03985417430989,1.2040312209865
381,-0.449976607623323,1.24769201244335,0.734512929098123,-0.930602821696494,0.0992515022242673,1.76738144729818
382,-2.02947469937979,-1.38861957257571,-1.09562966931933,-1.42890635129111,0.291386831465261,-0.594034815161182
383,1.76280918722091,1.39624488318741,-2.01165996238515,1.26330890153035,-0.0453190810023544,0.228440833341564
384,-0.158528224769689,-0.419977031363504,0.0909622449327671,-0.224400494096575,0.4207490322056,2.07861392040816
385,2.38619772738036,0.00400980637467694,-0.79700161476087,-0.36883762774938,1.13586877648243,-0.437022491192938
386,-1.27506046796753,-0.810410990009412,-0.221427597074192,0.840454336463999,-1.28060599074452,-1.8510905163762
387,0.486046371989598,0.524141770291708,-1.1904364176931,0.539603718480719,0.290676687454227,-1.08103119319183
388,-0.00705395972051029,-1.31229744673768,0.660222402745748,0.159890917936942,0.847942865892214,0.95478966481523
389,-1.78780303574718,-0.202098619685429,0.848053635159005,0.472512615741234,-1.23496244507384,0.969950449208614
390,-1.27488842478272,2.14236132197526,-0.220961197289494,2.19439079157289,1.14690974802011,0.325830504722062
391,0.446874127330177,0.501741409750201,-1.63500326254313,1.27326838702456,0.584556898080993,0.285343050779901
392,1.05274614461597,-0.497204712816622,-1.25982958082489,-0.571308642890379,-2.56568759789628,0.775993605398601
393,-0.749985922311298,-0.0563086558894975,-0.0821633159575233,-0.474537474620491,1.4705872041095,-0.626499289946386
394,-0.635859508739489,-0.307160340666009,-1.27531085500546,1.11138915263278,-0.942459432841663,1.52520237700005
395,0.93033472622121,-1.09505761331147,0.273596842206767,0.984529816086736,0.750030960806212,-0.732560463822644
396,0.0209391822359613,1.32533484254592,-1.25237445143234,-0.282059275556003,-0.229157068180133,-0.227404961020026
397,-0.305919527195519,2.30860161340989,0.661780495362092,1.02807801611851,-0.122876536852994,-0.088139589170018
398,-0.147905230910316,1.35308440850729,-0.284043931913685,0.60340339580253,-0.642282710692441,0.767100066404719
399,1.12587542198226,0.135220716695604,-0.255404611257988,-0.707866147690757,-0.635541723468118,1.30952945180294
400,-1.77914016495754,0.368913704270214,-1.59714237946528,0.561543737988966,0.577240410423125,-0.198740380002921
401,-1.81352873242603,-4.24832456774133,-0.383317331433862,-1.17092334822274,-0.522817804359859,-0.159021694953791
402,0.467262489179832,-1.29479323467236,1.0009958496484,0.966906966766906,-1.73937212192333,-1.16657798921665
403,0.863744653820685,0.0627891102355246,0.655036174839012,1.88596432359332,1.73040764978257,1.60078391781742
404,-0.645357342794281,-1.31488350543457,1.00952292267056,2.5948635084224,-0.756255224430778,1.64661137477473
405,0.211625452519295,0.777851682256409,0.58973812294239,-0.403256510863513,-1.13672188849966,-0.0953620326421856
406,0.177999736648226,-1.63324509491049,0.795226716806124,-1.29220409808427,0.0706901308442231,0.980208337682837
407,-0.314714495288834,0.124699612560141,1.34062011113586,0.603632594238286,-0.944208951597324,-0.331330763214367
408,1.24180531420019,0.323485225981921,-0.674207422674629,0.581110225019989,-0.689348666346428,-0.125077191542287
409,-0.692211965809285,-1.24959838971771,-1.82022834754601,-0.333700381857405,-0.81546882144366,-1.22951459978597
410,0.291755101900633,0.632596284333294,-0.0113855831609985,0.95365856234404,-0.965793322708036,-0.244404745378245
411,0.404861011345301,3.15889446505553,0.259453490195415,-1.77146546837213,0.971287227111439,0.561251611099965
412,0.47926971747256,2.12919116320228,2.25019490219532,-0.026085761893915,0.339252815540506,0.421769362908306
413,0.432821264114301,-0.410949656538582,0.887716798149712,0.154860248944357,-1.40473707993112,0.426332883902574
414,1.64335596281225,-0.830227477208271,1.04626502503394,0.714633659268438,-2.65326722555585,2.16349903600344
415,-1.3809436794623,-0.482420961101036,0.330911570761011,0.867717894830832,-1.44137770421391,0.295014164797677
416,1.39788728646268,-0.0754606105060828,1.62953245257659,1.29187244892492,0.706098574687112,0.0222763972482466
417,0.170935141324646,-1.0001694636797,-0.171990557554758,-0.255207616271554,-1.03307384118964,0.638492253894224
418,0.734275751975097,0.367309443428521,-1.21166842984158,1.57317665354918,-0.426007808660694,0.68919406613857
419,0.534463782405523,-1.20452206869235,0.00381783235014132,-0.730141569684088,1.01237725421507,1.85693203642247
420,0.255915824256855,0.27337947405842,-0.455887519272235,1.320094788999,-1.84813156448585,-1.17614177278715
421,-0.267985963171993,-1.65922929768731,-1.10063732663213,-0.629880239035526,-0.909827946904537,0.726988113233812
422,0.0132793371189063,0.542040061841715,0.143507390203279,-0.209715332130397,0.0858982437019362,-0.67204892731071
423,0.207299008146007,-0.731798222108468,-0.802516789948553,-0.174098900423732,0.267046230646438,2.54393128771211
424,1.14038929167761,1.63421381707901,0.45131733722151,0.246467154946967,-1.28342309455986,-1.94998579353742
425,0.70465543302471,2.17821104251032,-1.35392513074006,0.477358641470527,1.70248116790683,-0.608601109616007
426,0.639905847974202,-0.828488009412823,2.16853096403745,-1.47954049820513,-0.203833992323105,-1.17138159914862
427,-1.06648424775951,-0.0969657443940418,-0.596340415058707,-0.0972288148024799,-0.907834367357698,1.05860674565222
428,-0.264782941769664,0.926616780740599,-0.33144083893019,0.534592911104493,-0.538607191021783,-0.444776825151988
429,-0.705997522445079,-1.61221485476614,-1.38620609005226,1.6735976213548,1.20085933808186,-0.290337669762133
430,-0.450682160325634,0.174666920137618,1.7926785307696,0.149252583052865,0.7086646415815,-2.12390466082638
431,-0.943913220519409,-1.06541097677713,1.649605189224,-0.886675480681362,-1.14391764605083,-0.267581466283909
432,1.86497706044149,0.00385778782529976,0.373727788421983,-0.790338399553289,-0.627924756787739,2.39843507503859
433,-0.502592556249875,0.152473184116412,0.286987460269295,-1.54502242501589,-0.166310304608605,0.772065582561606
434,1.88554485450276,-0.145049841001179,1.22321123069719,0.412260649096529,-0.415311149061137,-1.93080481843117
435,-2.1995402757042,-1.15928926949436,-1.08539238474027,-0.408749910420096,-1.36902194416543,1.0212767683295
436,-1.21449467955215,-0.130055210917734,1.29942742068973,-0.73194024477384,1.78804398741217,-1.97783759284981
437,-0.870692136332288,-0.101586122843836,-0.356426212335652,0.455224349226527,0.250282612508348,-0.834059216470875
438,-0.740189110502956,0.873003020174399,0.265077768307874,1.13598472931984,-1.21336989752978,-0.864558378896054
439,0.810317419122908,-0.712303736421035,0.85572269060474,0.0308452681596808,0.838467435199902,0.967385471134746
440,0.218099735183673,0.504642489662004,-0.531789817158285,1.70719219995754,0.506658409422244,-1.01227796138065
441,-0.0543033426383642,-1.39334115784073,-0.996867174736751,1.76825399212056,0.576511370989824,0.658389560970847
442,0.127543076691068,0.0618570369057933,-1.64832818582489,0.571594617644053,-1.70622247575831,0.419073546956934
443,0.317122064602328,-0.487327019483222,1.37776892142826,-0.0557212554609489,0.245316218657197,-1.0686507152129
444,1.78454505738275,0.0172983659919395,-0.0286068098331122,-0.25988406481542,-0.230465714572355,0.83093430528922
445,-1.86135044362033,-0.253985058939709,0.015686330943028,0.891524285363639,-0.909167760801685,-1.85686416228147
446,2.20644578210785,1.63921287488916,0.0479989584178935,-0.261896377103362,0.0988430870319675,0.219589788374449
447,-0.626683422255405,-0.0131056677296777,-1.63049733530162,0.122677920934941,-0.43243107463558,-0.856213758477991
448,1.59556802649911,-1.11663259375729,0.803120835718312,-1.7670728746007,1.30964337579106,-2.54930280650759
449,0.289942202518391,-0.256967252167039,1.27096688910857,-0.908519616554033,-0.711345682243336,-0.301876516781731
450,1.27657855469402,0.167671763329378,-1.69474915565314,-1.0656601311816,-1.07803354034295,1.47219986300512
451,-1.5055150457928,1.09574307270574,-2.12527787650387,-1.56970739641796,1.93862612420598,-0.393685268630888
452,-1.74077096453857,1.17101113523661,-0.99749719436179,-0.591587653762869,-0.700660589733759,-0.136738863717555
453,0.637978663555026,-0.0505456609789127,0.716272732147806,-1.03939024582082,-1.46527748326648,0.49389966698657
454,-0.304324014899026,-0.0118212085591846,1.68568994227919,1.16351629659458,-0.022088668252613,-0.525232900517376
455,-0.737962660249005,0.674579582218216,-0.317116056497161,0.847749420094348,0.652725319033693,-1.11704451633388
456,-1.93601119114465,-0.717816246488781,-0.112145367185506,-0.348156697604872,-0.764674298895067,-1.06487216229673
457,0.486215201739053,-0.671393310959803,0.384186653788342,-0.65177820979289,0.179241457283295,-0.409527131860174
458,1.52389008455953,1.26559515227131,-1.59476548000429,-1.37128970800647,-0.525091689416982,0.291624153855918
459,-1.46537246024323,-0.729280453671336,0.693215465131335,-1.42421864853363,1.14210099002506,1.19265674910594
460,-0.311233386689683,0.698403876774363,0.235181993807427,-0.432631834033618,0.750531586723868,0.168300529230534
461,0.669262531420403,0.0925893131594244,0.721988320401291,-0.750295881037389,0.801358342990151,0.38830145757
462,0.647833449656195,-1.48336926853547,-0.180140360389979,0.222718000052377,0.279830917861271,-1.05861681540618
463,-0.248421725662879,0.204620973811842,-0.808910954850458,0.186324181223884,-0.364237830439113,0.129349591307552
464,-0.697882556722714,1.30683889452681,-1.69635730391636,0.292914843287365,-1.37225250728719,0.39523158605181
465,0.944572724684065,0.10585497914199,-1.45581273395974,0.388212845416279,-0.590989522497482,0.733243628578335
466,-0.455825294881775,-1.07966959333222,0.277153489935459,-0.204333891995265,-0.130079739502281,0.323116731032782
467,-2.36600359574712,4.92128102438021,2.56877424121104,-0.536227211063408,1.55702833281899,-0.316639330043311
468,2.58825545053594,3.01160722482483,-5.74604841315809,-1.53191206956543,-0.282971642957611,1.17165324485971
469,1.08758876867966,0.803201575631182,0.73763107024486,-0.541869467384831,0.367648186287284,-0.0830486357501099
470,-0.398393456898187,0.138107834405748,-0.0645469388574843,1.183065686991,2.20347018481809,-0.28226902874231
471,1.05106764175697,-1.13120834851779,-1.06336315036367,-0.419760458054481,-0.897444982060216,0.358317135760932
472,1.49570284721353,-1.17153205186689,-0.568648686945462,0.0719588326330716,-0.891764706966273,-0.00683691156376593
473,0.137600846991434,-0.316932092436871,-0.287072268606212,-2.00853675771121,-0.80824429063968,0.708592693461265
474,-0.129224736822615,-0.0405179652539188,-0.135550508121012,-0.821592175049611,0.819265744449956,-0.0506527383942277
475,-0.361758143113007,1.09888843280146,1.42450244087778,0.617437484078197,-0.602701464915583,-0.140428532936951
476,-0.948294167261697,-0.417493402164104,0.448417271464665,-1.09645151776039,1.3945548142382,-1.25008744271647
477,-0.882845304204704,1.04889009802652,-1.80829202910135,0.474148313350564,-0.519157100762426,-0.119957214270182
478,-0.970616859400822,-0.55365828963188,0.873599602463179,-0.108658638706117,0.174922704944666,-1.12482507966374
479,1.58572731218281,-0.658508385493096,-1.584586637799,-0.48757660391196,0.276916819734261,1.63180958588025
480,0.605114858940453,0.261492441347242,0.139559775778421,-0.0509646712090211,0.731851269993449,-0.0366910417415264
481,-1.56370454591519,0.574442852122408,1.08924625836799,-1.94340801051901,-0.306256533029628,0.201019047291709
482,-1.1730062269214,0.505185404797902,-0.466146409166559,-0.643539063270415,-1.05176243460833,-1.14411757155241
483,0.523276208642474,-0.759131573694956,0.0827355413148393,0.246816434329406,0.902871960289879,0.565031936226362
484,-0.186032061225319,0.576554237416391,0.08219168328964,0.157290771502717,0.383403886352332,0.274326628837837
485,-0.665730343268398,0.461063064548688,-0.179491264342796,-0.679274715412527,-0.746077552213176,0.991672280911751
486,0.290409100169905,-0.405002681921025,0.0165859855367404,2.04877859922112,0.472917614379389,1.56912084313034
487,1.22033281276576,0.387968069223609,-1.71107780052255,0.00836932875306478,-0.157533030166082,1.26564353261212
488,0.264230506444855,-2.58399148123225,0.0647320105931863,0.0777354706416235,-1.26705629177741,0.210931581784855
489,-1.14496142718883,0.437987639116468,1.93949000340664,-1.21626819313649,-1.26681862999571,1.48058304023119
490,-0.312691805785457,0.250976306684283,-0.935515361360872,0.026858288347482,2.07017085482556,-1.86982955885504
491,0.00804571785688582,0.169013388403814,0.576961032578883,-0.929483977092922,-0.298040015321739,-2.70919116103209
492,0.713130113897317,-0.283030059910319,-1.56215437577773,1.16486232335799,1.65702337023309,-1.36406359458206
493,-0.793824391700436,-1.6777120768706,0.164429720174619,2.17070598742237,-1.44543136333436,0.0136134020425921
494,0.935246682817952,1.21903597131193,-1.00801419639793,-2.04204701268518,1.14839530384825,0.380043330951091
495,1.41119473771742,0.947700748478429,0.804455138758527,-2.05569125693903,-0.365133678767233,-0.722709123054791
496,-0.89408330263053,-0.475189731710364,-0.529933349035118,-1.63931442755963,-0.794746284458696,0.139171545003034
497,1.49724210622829,-0.805627870189988,0.0710560459966601,-0.470058478312812,-0.0607532511061055,-0.836814231482423
498,-1.15393101407127,-0.143719604557114,0.206543844335593,0.402837007409026,-0.559633770393277,0.43906865732531
499,0.684911504620347,-0.0571380492020551,0.697128032994952,-0.476541456588228,1.29079374602579,0.372545023543145
500,0.293777705870202,1.90428703682078,-1.02900030606856,0.287618836469155,1.40196500876808,-1.43859266013748
501,-0.608132506052983,0.902087091964104,-0.756111651728671,-0.58131711336598,1.07596081868013,-0.429041480166676
502,-0.746077304112662,-1.69009241237226,1.41877939509178,0.653228592925631,-0.698480820674466,0.641725556581234
503,-0.0490567044076175,0.0761299571880096,-0.47434628886779,0.836474302944379,-3.66545506069183,-1.39514034157608
504,0.291225428175099,-1.19070511411533,-0.355952837446411,-0.886553025020583,0.806914154828169,0.0804579605724413
505,1.52799909692802,-0.27324950970634,-0.772052924630679,0.59508113144194,0.282474805971258,-1.32121465934224
506,0.29941733652902,-0.46444491659559,0.593119546591743,1.587610332938,0.602057369244056,0.294653603501868
507,0.13277206061269,0.244788504390226,-0.886481098959134,-0.0206516005778871,-1.15000506264815,0.862833994560405
508,-0.282362200932962,-0.542211914102961,-1.6609247121359,0.039865031384133,-0.57328932625159,0.430144648676773
509,-2.16485476153294,-1.3024873386235,-1.07908308418497,0.618682436549134,-0.0748928204150116,0.962730961312258
510,-1.388138697503,-0.468686478678383,-0.911565534975969,1.39014536568105,0.058841256765836,-0.921597914933514
511,-1.51424376952549,-2.38089161540297,0.243379047948155,-0.920413025094468,1.33454803300954,0.522820155509444
512,0.366633212352523,-0.93437907066927,-0.921221913106366,-0.091639378835207,-1.78120593833176,0.76525171861039
513,-0.207528545432438,-0.110663390393126,0.4167416798585,-1.72708696962562,1.9772622173195,1.08022312888714
514,-0.377016431767436,-0.6796918241113,0.350239983725703,0.711941740325579,0.223738664180065,-0.667111311775287
515,-0.668605964706663,0.199411566779733,0.436984245578292,-1.75739761326628,-0.602154040655917,-0.987888029293339
516,1.39369161192416,-0.566924467111475,0.861315500542926,0.413654101780879,-0.868820068076559,-2.25975055971825
517,-0.568377460324597,0.424046669425719,0.287072044595174,0.0209278819628034,-0.766976918204105,0.718291452902181
518,0.390401928483087,-0.603982392260799,-1.37737321358929,-0.343432540181352,0.075794962139828,-1.76896116199475
519,-0.410828305315829,1.01816027267887,0.350853479799525,-0.237137528965966,0.386625977514659,1.42819724012369
520,-0.55896359497044,-0.141440927816207,-2.07687163368451,1.01793026509258,1.17493651984124,-0.118394499079598
521,0.600738928110518,-0.336723011398188,-0.770842870849034,0.401617363073339,-0.698572014912568,1.55573467834685
522,1.2761424580066,-0.167247322596485,-0.198811875647398,0.0920858216006999,-0.975861201285643,1.14137683319574
523,0.787711228684345,-0.362742683167193,-0.22668867450488,0.526543256693431,-0.871270030565704,0.403100943795606
524,0.56309738283908,2.28175908965306,2.76552711909603,-0.306846445055917,0.611470471792633,0.280365824102379
525,1.42853138927043,-0.397585714715274,-0.416271819462693,0.507085532833069,-0.85476316012284,-1.81461763695198
526,-0.0151818154806661,-0.191175918803551,0.144384738496639,0.546769924679538,1.00100312655893,0.224809827333565
527,0.745417364051169,1.22819309906178,-0.621603483188569,1.34944784196113,1.32203224951134,0.719308717566749
528,0.512286709936773,2.0931808669995,-1.04971933385173,-1.98777876432821,-0.521532805269188,0.684368442922132
529,0.287239648881253,-0.686581605934482,-0.797637389418386,-1.57822565168727,0.737693310355763,0.802806102183727
530,-1.30517721171465,-0.139909690784738,0.016660484283988,1.60799034677744,0.483325821891224,-0.351778128658717
531,-0.498886935370404,-0.384186646270477,0.365775391448046,0.634919528644664,-0.489714512103593,-1.65980825664762
532,0.007827685240948,-1.10353560050455,1.03210042166558,-0.645359360270427,-0.526687194661609,-1.57427687684109
533,-1.23727539422456,0.991573959399417,0.830117956237469,1.081272238954,-0.638857274563606,2.12096975877063
534,-0.879297009731408,0.961247334897101,1.75082092812982,0.401224264508947,-0.86312070414678,-0.246046004540187
535,-0.340022400024332,-0.0969957831217181,-0.734993013797533,0.0900614993248415,-0.0200293263454465,-0.93050107386461
536,-0.224023929336381,0.471107432997008,-0.527883428279147,-0.759163761676531,-0.545867952453807,-0.53072044998234
537,0.275800289350023,-0.00401534986321707,-1.30017975692355,-1.17196517334422,-1.1392356951714,0.596323507854986
538,-3.02406742386953,0.940823759141392,0.113960552691762,-1.47076930330477,-0.00300804452547872,-0.68805184674426
539,1.78541529395203,-2.29223122679681,0.126858392583529,0.327097934865201,0.977164986166395,0.137328022744031
540,0.870547294559805,-1.02028491661096,0.559975140621107,-0.377275909597029,-1.15958234484395,-0.576820734542963
541,-0.620367123621207,-0.94824786739406,-0.423995157587194,-1.3760865073925,-0.305794649711862,-0.824633833132512
542,-1.32387132636314,-0.443888052696119,0.301878825541587,-1.39950129755645,0.571962840568248,2.01581490766249
543,-1.3674221945046,1.75771574671597,-0.255037257886627,0.0786482344188928,-0.499314176313421,0.087596532087007
544,-1.93196999716992,-0.348235659673341,-0.0936121713752278,1.45655359984473,0.840678049740248,-0.806774664839622
545,-0.758800124215607,1.74591609838323,1.01924645646972,-1.76413870528582,1.30351343729417,-0.792909483471536
546,-0.0422553101579884,0.141459492780913,1.10776668324217,-0.589760092133777,0.60134902696107,1.08504774534379
547,-0.897249208114009,-2.30210994849979,0.920042623050392,-0.0644657829711416,-1.30206980513104,0.584212189874553
548,-0.378116046626201,0.194319059270949,-1.00651961308091,-0.0455990838102269,-0.459918787780077,1.583033071291
549,1.91361957027526,-1.77338676994418,-1.34238828584065,0.300356686394485,0.422120248072446,0.242034442849721
550,0.0944678829734703,-0.82944030089534,-0.104998666459716,1.20953983391797,0.184961447801312,-1.37860482474884
551,0.622423037321294,0.688790576036846,0.430594425001695,-0.840155354714004,-0.21610371290439,1.23727278557495
552,0.225152482217569,0.143165172214824,-2.12508926931456,-0.440538871366501,0.12544343103108,0.302773128393231
553,-1.34768489690973,-0.446786601376174,0.828314990431677,-0.218012588217127,-0.614782248936278,-0.889945490826305
554,-0.664873529382979,1.22393246692107,0.398638178852223,-0.289682201956277,-0.486058037714832,-0.930223645195063
555,0.882314106426465,0.181358528412214,1.18872467567364,1.8937411815337,-1.53801314680976,-1.79624625425551
556,0.928312971324297,0.0862859587035787,-0.385926956180415,0.553255431191622,1.82443720193486,-1.2927741363283
557,2.19634216524638,6.51593898989225,2.08670929674163,-0.641706831988466,-0.758281565776573,0.684989898709878
558,0.487714039911699,1.82229816010379,1.16383457254031,-0.391937780600517,-0.944375785915695,-0.0530457633811951
559,0.616332925194577,-0.835265312092685,-1.26389143190306,-0.84515259529148,-1.79215101005115,0.430072938287725
560,1.06924326000712,0.649604523549013,-1.56863691509658,0.481661546451723,-0.177976875134748,1.13316124730934
561,1.32812328621642,-0.0263571655961174,-2.18122171394875,0.103429821004008,-0.644223377507906,-0.22284846571875
562,-0.763056494324255,0.394608518101885,-0.593782120382776,1.45562373086234,1.21166608667717,0.133242300770681
563,-0.85970258527069,-1.3887383347158,0.583201378098296,0.00411037041023956,1.35188202874111,0.684910691060126
564,0.792789458652504,-0.482271027689057,-1.01357419690488,-0.732931655234002,0.918238963337519,-0.00313853434655327
565,1.98857853327779,-0.616084952507912,0.25616307690658,0.257676923767263,1.41423368877221,-0.373793326628109
566,-1.82506379032386,-7.59054721294962,1.43534740719368,2.62455965350647,-2.88830337384416,-7.59288971644967
567,0.0728486800833656,-0.675758935410675,-1.2487910781115,0.688808963193186,-0.917988299425873,0.669225877145207
568,1.75036805606219,-0.715121311549319,1.20402960190828,-1.43211877409584,1.34251541958805,-0.922666953638779
569,0.241470259269319,0.657173050878558,-0.870220505042888,-1.03607431109875,1.0464981506364,-0.0131674719045339
570,1.26084190191468,-0.64182564659701,1.83419550757199,0.825479866961334,-1.9721605952243,-1.31501224394776
571,1.91425072466763,0.0860427570051961,0.629919175790015,-2.46887154499927,-0.447570228518976,-0.900764210124817
572,0.334937774302968,-0.984903443879601,-0.400404002540801,1.31158487488699,-0.874999292877466,0.624926315610559
573,-0.347568835700671,0.0522720766327113,-0.389544948576856,1.36402640628892,-1.51604882778511,-0.130028361443655
574,-0.199305871919654,0.605272874359487,0.875899055430498,-0.673636794244061,0.378530492321051,-1.85482324563749
575,0.624597885457417,0.374873888540207,-2.26021559403761,-0.646758201814826,-0.110831404550456,-0.350075466946247
576,-0.773613114659617,1.12075176325646,0.811344614919677,-1.04401339665793,0.361031747893767,-0.300097307542388
577,0.873638842324383,1.10028848347858,-0.318195971329273,-0.539651256778196,0.735606480316606,0.976682781918798
578,0.229858892395863,-0.0208952396821435,1.08765665461017,0.894020288343672,0.419041574611292,1.72759942545455
579,-0.169547788894951,1.56960196537473,0.944752864437534,0.360537463234105,0.76326892009468,-0.175181833877094
580,0.538104961540208,0.650732787118164,0.272478184718234,2.001383626567,1.07318901796965,1.53157997847401
581,-2.23182221237932,-0.895786410675267,1.9759476298652,-0.543850302198744,0.280167415122632,-0.0771227548874903
582,0.364264542628204,0.408936853888749,0.777850493565274,-0.569401519365816,-1.2854647120491,0.0739649678028935
583,0.245924353761522,-0.047636009972672,0.955796608074296,-0.512877142958287,1.70117710005522,0.414293834348629
584,0.398458843410951,0.43230280121079,0.245191923254941,-0.214502603023128,-0.312964714457581,-0.167443058978951
585,0.685183306222048,0.74708660861366,0.388955126898118,0.352724136249283,-0.820489289999994,0.292804176749005
586,-0.0656428617947662,0.520452515268209,1.66806403064153,0.369877046564773,-1.54640099436486,-0.899201713765865
587,-0.865680520987924,1.55730232056898,-0.690621821801329,-0.720020015003397,0.868060319505937,-1.16775839226846
588,-0.583241118260463,-0.866515942649433,-0.150569236665431,-1.13741695927204,-0.74975238875653,1.22761286644872
589,-0.806739085582384,-0.886609084752035,1.8671356955138,-0.225638043274126,0.314835437531369,-0.0137020402741939
590,-0.65491830469133,0.842475199851692,0.990455112475956,-0.250083653158615,-0.217042024682776,-0.458675635389058
591,1.1428497643135,-0.131959319750181,-1.14696447697502,-1.35401944873536,0.329288302518825,0.232554047084063
592,-1.89111929730697,1.06925411990709,0.251596192458868,-0.121824187575935,0.547450271558328,1.63695056737369
593,0.121326595982049,0.341929042358962,-0.386302237570314,-1.19308714828545,1.32765476211114,1.46759826513542
594,0.619007988491781,0.111507726080003,-1.11980556507468,2.13285036382918,-0.854120619831105,-0.0236885954476328
595,0.237674397254067,-0.512394109647362,0.497613943918263,-0.888060844571451,0.119573014712374,-0.434813695513978
596,-0.628209594706152,-0.388685179602171,0.497393052882492,1.22760124010618,-0.198481902309524,-0.280436590377932
597,1.18776462750939,-0.673827975711932,-0.199346353832792,-0.614653596446734,-1.14796228526193,0.999897848705802
598,-0.736918756019095,2.65037802166273,-0.679416046310041,-2.19379540036859,0.667353982480545,-0.366207870956848
599,0.267491947196968,-0.855291806901426,1.40909652542578,2.82412712820064,-0.0750403085949775,-1.05351237113237
600,-1.8737381285021,-0.453565660748131,-1.83759322411744,-0.954335131402257,2.21946109008923,-0.0459398846050251
601,2.6474541100732,0.0718400094461127,0.248251506772587,1.8502028992283,2.11370751803009,-1.75807254328705
602,-1.33807898592014,-0.792375339048798,0.773224000301234,0.608288733055409,1.64809777915327,0.0148795972769442
603,0.650779915886198,0.204731717974745,1.27995169093242,-1.32861947839325,0.684091685916697,1.19817961911899
604,0.934680206561256,0.618108466911704,-0.34993192111259,0.603765691091968,-0.083533992585238,0.877829757499678
605,1.17649363228458,0.575567377149157,-0.337034471501603,-0.0626449048835151,0.265251943108418,-1.6123946509511
606,0.855034480152367,2.74564147423104,0.806715745811948,0.944577223650093,0.985371942152147,-0.586084504707068
607,-0.117476848227373,0.293634740381284,0.745874725824619,1.51900294901846,0.278336034034274,1.30565931640919
608,-0.968474227758522,0.576150719108114,-0.0378158607892875,-0.0272649359960353,1.490537935474,-0.0108584949304322
609,0.544918114474163,0.318334031514339,-0.595297012987948,1.47004843132594,-0.306197368850546,-0.125141293468014
610,0.471034346536768,0.535670547839693,-0.955743633802697,0.952239608325516,0.243225517827756,-0.163186491894026
611,-0.423527920137398,-0.824518531899585,-0.796240363697228,-0.15964419999513,-0.630028175867173,-0.138927083057076
612,-0.967911783383876,-2.27469809280085,0.106322308108488,-0.174741804480453,1.25613682244152,-0.113438958592251
613,-0.0925415840167185,0.803718514968679,-0.96509834564704,1.61666936426969,1.11960257573641,-1.21668935162332
614,-0.392565703293813,-1.13226514828692,0.140221320712834,-0.924838498082449,-0.00864282562413885,2.80354169328898
615,-0.40854747029429,0.806035329090108,1.33574193676814,-2.1967764049083,0.349871566544644,-0.275402294695577
616,-0.393631678437499,1.16841173948095,-0.549235302378044,-0.244763262606596,-0.173635147303861,0.510297738122042
617,-2.06942704113617,-0.672387530691647,-0.478451929587894,0.543122020324744,-1.10288857062471,1.92080826816627
618,-0.17142619949282,-0.876669075702791,-0.251796884430905,-0.485442884850987,1.7505622430653,0.684618196989965
619,-1.10084733338709,-0.176779090820242,-0.147522791980556,0.364230655046191,0.568725351410146,-1.47695419585379
620,-0.596608110187127,-1.21552071525574,1.67884035608884,-0.315317201259769,-0.719769733010431,-1.19432119436397
621,0.119375264892949,0.92947555132024,-0.545122551236444,1.0051774528402,0.388401852090803,-0.40980701988875
622,-1.96834429606095,0.105709410850652,0.00893435889820372,-1.40211959660755,1.37500776928972,0.693804470930322
623,0.484862135378527,0.570807178351701,-0.0928018413280206,-0.332439950687735,0.325045419430361,-0.960121478760783
624,0.309638913612795,-0.705296696817004,1.01873427951356,-0.328935286844804,0.619182445008156,-0.367130934974618
625,0.0762009942380248,0.384685874898523,0.82134446839452,-0.896986247082665,0.605928721505474,0.583746209901477
626,0.158608540973008,-0.579050393132439,1.0842882523101,-0.226510940830083,-0.534440489069018,1.38291215394772
627,0.657164889817323,0.323185382475566,-2.58366861918057,-0.385222867540105,1.29955551582789,0.485430457068899
628,-0.381445972417644,-1.12271546751919,-2.02470612686858,-3.19364753100851,0.0743159038216408,0.0362031371867257
629,0.210978097712727,-1.62846903330989,0.243397358227508,0.664812390407425,1.5915583614606,0.524643788004319
630,-1.56693159263688,-0.123014724818251,1.9299258470658,1.04216782179102,0.512877807210248,-0.335023128583025
631,-2.66768626505412,-0.467620691992394,-0.447314253788685,-1.08103813299931,-0.049521107601522,2.6333678976482
632,-1.90200874608597,0.720681438967588,-0.369740924902229,-1.9388883090719,2.38424047978365,-0.842503971273105
633,-0.095936763765692,-0.169908048816636,0.942029691530526,0.251729141668325,-1.07599960626919,1.01226021297106
634,-0.248544922284446,1.68911332895302,0.713137643445206,-1.81332102621942,-0.508048479854236,-1.34208960930675
635,0.141388528573361,0.0545210567981956,1.12584632203362,-0.826188530071315,3.21113901283388,1.06488141769281
636,-0.0529190331169944,0.260023500134287,0.337429708253555,-0.560060614949186,0.686376677425772,-1.2627063794517
637,1.1948334172869,-0.0577480145619528,-0.0520757417465885,-0.114896024966101,-0.907308210219001,0.905234479928302
638,-0.0985833734357681,-1.01408045229657,-0.983472549809035,0.517149588873074,-0.43187281699998,0.00698512112035186
639,0.613374757627505,0.0268719747170406,0.261653567474066,-1.38219185840172,1.10379371714653,-0.592059771687753
640,0.914279353038308,-1.17279569535616,-0.350976489444043,-0.478147404214224,-0.174741610216813,0.584033584501628
641,1.6151761971453,-0.851099231264908,-0.721868634215765,1.30495896377268,0.326661435052459,-0.948181936995396
642,-0.452230759254897,0.616449483729717,1.83376621929419,-0.474504604031149,-0.237662221071143,-0.509342165557079
643,-1.4919402836475,-1.50785351594669,0.319111459458651,-1.6428238664328,0.576767758549849,-0.90638072656898
644,0.506055633964561,1.04443658040355,1.35883447870145,-0.616271695422309,-0.385144157632986,-0.677136847755828
645,1.52994871801371,0.452015659701771,0.826121355339775,-0.273777783601755,0.138859951673377,1.72569333568191
646,-1.46488818578239,1.00213222817501,0.251412702862879,-0.988448022629006,-1.95816989524626,-1.17732710424352
647,-0.633521007403966,0.569315992501119,-0.94176659187871,-0.199602837813072,0.46454019231817,0.636261385837019
648,0.0151247404126849,-0.601931534491104,-0.581373170083212,0.159051145413953,-1.18566450268584,-0.859607198595894
649,0.00239520651507495,-0.128959726663325,0.0295901169458446,1.19470500035345,-1.7563018236442,0.617170902500123
650,1.53733099179328,0.355078849153346,-0.443288834058461,1.25774087517103,1.0861557296929,0.728189067367966
651,-0.375546450530328,0.186209676010679,0.756178023056143,-0.177720219138164,0.894893080263151,0.44299632274365
652,-1.50868776646404,0.7887479753251,-1.40665565364735,-1.14663316232073,1.00442359890312,-0.425854493997047
653,1.01363733415754,-0.853330536095399,-0.556765945788127,-1.62341912141457,0.110071335246207,1.04780556985781
654,0.0722984291873521,-0.0892659514276601,-0.593729086828152,1.75508588732977,-0.421880508985275,0.368314827671899
655,-1.88093904631036,0.746230814888006,-0.440135920790344,-1.21374181479424,-1.54154517558253,0.899453532557068
656,0.393632296166216,0.176604894828408,0.872281206958771,-1.88394857887153,-0.871020466737665,-0.856990697686991
657,2.04464030647049,-1.10564296638357,0.697766006857247,0.504095711991973,0.64983611181772,-0.185503454240497
658,1.82380692754122,1.59349632072553,-1.00475357893213,0.111925302641558,2.207305790614,0.343116107217098
659,0.863705612491906,-0.512939460987329,0.450740363711279,0.266944720354524,0.333853948134529,-1.14800448708716
660,-1.38387565897973,-0.423534870943415,-0.610749688448881,-1.23576030036725,0.0883087613801743,1.66320154103627
661,0.910835636208069,-0.793873615209465,0.851484019208238,-0.000992447058283743,-0.307352409779699,1.19966403979683
662,0.298123837178247,-0.223301178956628,-1.04912008212437,-0.124513224244814,0.273881033853418,-0.198844514911807
663,-1.34325038520503,0.797998213975171,1.98216061870506,1.18586291045024,2.0408425649251,-1.74340664751118
664,0.23644207381734,0.586815830679182,-1.51213071279167,-0.228552027073398,-1.09648038447995,-0.335397056265559
665,0.302048102772961,0.38495478713514,0.978725593656635,-1.8563992507556,-0.610384372418963,-0.202039102190155
666,0.859793545382346,1.98999689743669,-0.715938689283097,-1.03021146096599,0.860830280118354,0.478740451760877
667,-0.401480971180338,0.158668679068429,-0.119294009770264,0.506241592913285,0.407020447779613,-0.232431928093013
668,0.872505347714672,1.61251999518441,0.65189631098243,-1.18271893420416,-0.310195314345299,-0.071778515307716
669,-0.143355596478095,-0.283547539158741,-1.87172974277851,-0.787150567509327,-0.51462915599862,-0.746895311427479
670,-1.97830891224999,1.65196644380441,0.751317011158977,1.35873944523563,0.319310018133658,1.34884961559913
671,0.173906583136756,-2.06926952488114,0.833856756458399,2.55370731467854,-1.72223663747358,-0.396132016396616
672,0.00655827646135477,0.853675859901334,0.589541372732674,-0.0287464051405515,0.552753499710938,0.471184503881031
673,-2.3032184810798,8.24709846362595,23.6277663587355,0.692031777477837,-1.03462620500993,-1.47673499315926
674,0.378336889163215,1.49079254747318,0.738165384620332,1.01230911913679,-0.629086180757114,-1.86964385366821
675,-1.22591683325715,-0.951672551856751,0.163985413568615,1.13493600042005,0.641270981858469,0.0775287110528401
676,-6.92145228668985,-15.2959245113501,24.4971352414138,0.65325615084385,0.629511687154916,0.166947481215274
677,1.40238739863982,0.609485416746611,0.513086895034729,-0.940442959952652,0.0732430900702129,-1.85115907648959
678,-0.845204748694128,0.834777413631693,2.22972438853329,1.09686845324357,-0.763903990797539,1.63323197237275
679,0.0594571157849313,0.217772105233074,-0.242306549457221,0.509208916022416,1.48444758762043,1.95092344421848
680,0.650472600893293,1.29545110663866,-0.0420219882379054,0.777134180553516,-0.0717708033478966,-0.0164179022340637
681,-0.928202485764587,-0.368271603037768,-0.921499474857897,-0.596176064878134,0.696271773428311,-0.528535750346651
682,-1.05372137342957,-1.24134384603025,-1.12470577303044,-0.0240661861469269,-0.192783952160973,2.06143525015926
683,0.303695680050213,-0.129250038877636,-0.318779736162844,-1.00338633891892,-0.0322728338898192,-0.738570454503289
684,-1.09514007310713,-0.945017156982993,0.632868134263928,0.205470828872529,-1.13467511462603,-0.336543001314924
685,-1.72653101562693,0.30757229036294,-0.670690433296091,-1.42077071540339,-0.00202375222852071,0.0415359462803938
686,-0.190900330542169,-1.74861261322262,0.582742655407194,-0.984986061805487,-0.424296602166723,-1.47453094331975
687,3.00861406891086,-0.0651268133199243,1.71765402361968,1.00475244466615,-0.13718959397271,-1.39158655372554
688,0.570069360414081,0.865690050067438,-1.5083486415807,-0.533126816496763,-0.952398364874723,1.71467151048639
689,2.10483110314078,-0.0768369862995442,-0.949625436733107,1.18402713168687,-0.73960153289629,-1.34740527384538
690,0.426668299754975,0.66592600396676,1.02098785652573,-0.586447737939583,-1.05395988768546,-0.14758153977036
691,-1.40530099281684,-1.64661327882056,-1.41377015359229,-1.62103330170816,-0.253312245370252,-1.08259811191522
692,0.79152002313487,0.756868930429224,-0.582427985029506,-0.106160310197498,-1.41087152455913,1.10680180372599
693,-1.21242423596577,0.139991898740711,-0.176087036541739,-0.445727421771928,0.853962412861219,-1.876035890295
694,-0.385866472364455,-1.06871913645996,-0.914861229304981,0.596162250787744,1.13264796752982,1.07883032584797
695,-0.680207313718589,0.718116845457585,-0.023999440252263,0.841846478517533,1.59022193149779,0.177185492937109
696,-1.31776217198072,0.326875949941977,1.16977724928184,-0.556668438613881,-0.353011021947281,0.49391362713759
697,-1.25234050074132,-0.105932358497264,-1.66522877413792,-1.47944540070057,1.40267267738989,0.0159218908551949
698,-1.18406188291095,-0.0536900363488239,0.0756619361546987,1.48086814522475,0.29746239074722,1.8303062343839
699,1.01022978209707,1.26539238078474,0.303427495040615,1.24160411635453,-0.504323788845059,-0.890772447164681
700,-0.477489451342385,0.0856324826565751,0.0339755269949139,-1.15677474362633,0.834350417321788,-0.679663443032013
701,-0.0881541020806586,-0.691558678408818,-0.846097858243499,-2.02012351643441,2.91939618037319,-0.657709058881607
702,-0.76794659424428,-0.250886530501886,1.63949297352409,0.249124370469532,1.97144230407276,0.23549182969286
703,0.0781306626221838,0.0291061314144047,-1.68280632193925,0.126733503356653,-1.70443563218569,0.227692499340878
704,-0.632115137122956,0.724095729519045,-0.360309934838246,-0.319196236557811,-0.501911231615748,0.496766136837155
705,1.4506978700097,1.91413681988913,0.496101603939803,0.116731207767729,0.325747757354531,-0.124905393017861
706,0.578863949560361,0.194827555215889,-1.10754075803792,0.857534385034943,1.60719046532001,0.752961522374566
707,-2.26111326715813,0.751573399984633,-0.165204957681582,0.0938395884103611,0.723553740112067,1.39813861730807
708,0.377773253260608,1.57515965534665,-2.12097574434937,1.31571750711238,-2.51902569148578,1.25824255004167
709,-0.39281352312634,1.34240259662876,-0.424501928016033,-0.317826420861084,-0.930292131618968,0.00340019531921679
710,-0.768213455036069,-0.758777748193186,-1.03189670526708,0.637774929911132,-0.53623031015121,-0.270742115565101
711,-1.16061035928443,-0.626624352425259,-0.819824736504386,0.593383661116835,-1.46282261847446,0.000474471470826481
712,-0.811783217098798,0.121921649068512,-0.650084337108803,-1.2797450733616,-0.372724563377828,0.0350184603839927
713,0.105849426699083,0.678583430226881,0.339164268323572,0.829164891111202,-1.36735293657643,0.354149195781788
714,0.734322736009389,-0.718924187579638,-2.66098907309455,0.0479044921333096,-0.0178014035360991,0.735019927268824
715,2.28282870593253,-0.750028250936338,-1.49196000966196,0.50350284573372,1.53078956825944,-0.33085605499274
716,0.969721642428759,-0.75768691374554,0.176902197942838,-0.0147633112151414,-0.526284651008979,0.498191240419588
717,0.269290975248048,0.141216866834361,1.01635139759597,0.794835380881983,-0.67000189495319,-0.578819226810608
718,1.05902296688475,1.86644015584348,-0.259445495118525,-0.0640119398360712,-0.903370558232724,-0.195572141745692
719,-0.262585716142721,0.473876795915243,0.881983565158686,-0.433142255531786,0.458596297972321,0.404816792881918
720,0.272469017290465,1.96028725163561,-0.395615270989682,-0.304068185795405,0.282953916507794,1.51985434292932
721,0.0239479899136167,-0.111552607097731,1.58175357399224,1.03139181929146,-0.957396559521361,0.75596044078924
722,-1.68314553231993,0.832230878377213,-1.33719610048687,0.632710644220312,-0.918607016617267,2.83623444975916
723,-0.568177288934212,0.371835819294803,-1.80298740971724,-1.10361623016194,-0.381939853802269,-1.29705877293605
724,0.0112363636145145,-0.590366307213629,0.786076046201868,0.893859346238011,-0.520113143320831,1.99679776141072
725,0.638794715477879,-0.970455406591514,-1.26580370707313,0.979635076066703,-0.751376175209742,0.0818764029262458
726,-0.0939765672894156,-0.0760495474769696,-0.238177691888723,-0.830062571886321,-1.03903539218394,-0.0887859193143484
727,1.66059568474915,-0.128899359927955,-1.88043519502281,0.0629492640159985,-1.58263412223639,-1.29882907818152
728,-1.54470848940184,-2.42913388563129,-0.130325498890397,-0.826309718567468,0.262555935463484,0.949772586009859
729,1.68630416117336,-0.926782275857187,1.16117965324375,1.27872299613162,0.669060866793618,0.683825941465671
730,1.15039013818768,0.328738597510042,2.01227501147522,-1.79659952840113,0.799565059372568,-2.19141721556524
731,-1.42278596558082,-2.45140275677971,-0.220507450365997,-1.39103663758188,-0.0267188023983618,-0.407228862881725
732,0.817379458424395,0.0470479350488634,1.236551845405,-0.122003456048348,0.648545353599295,-1.25092907883163
733,0.592061439155082,-0.0320020862702216,0.901122652615569,0.608462746781001,1.64566151872711,0.219841118782363
734,-0.733470076289084,-0.419301927890918,-0.874856950877395,0.267548020719823,-0.49430332535472,1.10193134988803
735,-0.323696786185674,-1.1933368188197,1.73073213974409,-0.810318145462467,1.4611911456269,-0.262274641390616
736,0.199190223257773,-0.537045594203905,-0.464163390814701,0.300965054822274,1.03137768425436,-0.689404465157375
737,-0.825956004635537,0.393548204840628,0.699610492762226,-0.293381465300243,-1.34027875491641,-0.30700014712333
738,0.303392869717608,-1.26395641087223,0.546752870706302,-0.886624296760758,-1.34010623010967,-0.373030158824665
739,0.464291576794293,0.578155307915733,0.307349524826527,-1.52844832750837,0.697693473006622,0.627640449809361
740,-0.389947292195865,-0.0206117471330698,-1.91128920348025,-0.4119318022302,-0.592227292921974,0.710384259322502
741,2.0877997253694,-0.491136768068575,-0.0658993069207798,-1.49204383484062,-1.52577129042489,-0.282552231272285
742,-0.551882096046264,1.46189758111713,-0.984952402364606,-1.53185875571956,-0.71705565775908,0.415613113267879
743,0.0457239609815787,0.882601875935755,0.542463030686681,0.178965941122684,0.349380172930592,-2.05756931885669
744,-0.73036969099544,-2.86428876374222,-0.192760116897829,-0.0657868504843581,0.289296062386901,-0.374166609252314
745,-2.4531069319661,-0.637899366709848,0.247014360397193,1.29578317968922,1.31945921777186,1.51680741413456
746,-0.370505983352585,1.56726415088936,-0.491441317158002,-0.881987802331294,1.45690289272157,-0.477444072515702
747,1.68740882816699,0.306359521957829,-0.980989865736049,-0.934746836969855,-0.583959369792973,-0.538666087429177
748,0.207488692505841,0.192960906052163,-1.08129345572394,-0.00199011983765497,-0.163784328821698,0.427753261730221
749,1.34741824789388,0.98347661089428,-0.578504016174467,0.334257884324754,0.259058374927454,-0.54567822592025
750,0.110260754626372,0.421356338562586,-0.276981718424459,0.693150616093706,0.412059691112401,-1.31142870333744
751,-0.696112576403035,-1.18826186894972,0.84086107614333,-0.304266863923385,-0.593360943216779,1.34573783876192
752,-0.154980856254789,1.28391805603703,-1.0681968252569,-0.365685063426177,-1.20721566822711,-1.36668961785158
753,-0.572468436864498,1.18289494835186,1.80952558731839,1.40908398100667,-0.188566676490711,-1.01378603156107
754,-0.939157089151549,-0.817915790243466,1.53192996421462,0.478233572202909,0.616059755498697,1.98956540116435
755,0.345121327410932,1.16198919376631,-0.367625518565574,1.35921632351324,2.30462864693996,0.650479343428926
756,-1.27363234470411,-0.421213026652612,0.470421626658297,0.675835132657116,-0.676338079009272,0.0530213643517564
757,-0.361023328130552,-0.530573174407189,1.22700899385023,0.75481449749809,0.81935010376356,0.946982465953418
758,1.16121155960273,0.111657097664035,0.724625912769806,-0.759866376904875,-0.0387014533183405,0.575398391118941
759,-0.196081455539198,-0.392225145955484,-0.751647493275307,2.15864879859851,0.526673889642412,-0.978018101758048
760,0.268243354641558,-0.879040127100919,0.956027128885252,1.08278688936652,-0.0477913035866278,0.332603732255491
761,0.128861454224364,-0.0630009317609254,0.251471627299261,0.491239665401224,-1.41934563095024,-0.265886002966947
762,1.62873260473106,0.555099742327829,0.881888449669306,0.986999460970322,0.0875485225080862,0.782801688599952
763,0.954588995740166,0.059571504789526,-0.0805956856108418,-3.18941172102891,-0.0176274987275929,-1.18598526910067
764,0.510634064975453,0.12334766442848,0.673780115955537,-1.89254202331921,-0.752080826266526,2.34940664685443
765,1.11737070891462,1.04498634066994,-0.224008553550939,1.03743560310334,1.42003351859181,0.848147193122306
766,0.548441549747912,-0.998141477033289,-1.92299352148956,-0.146231670241382,0.725087638204944,-0.869737729663043
767,0.689131213448671,-0.116450384731319,2.38989436630584,1.27419820734875,0.603318470166006,-1.06290676076879
768,-0.385797813337432,0.35319776383951,1.17918426038725,0.555257055110772,0.139836092224034,-2.8329644277421
769,0.507827829158816,-2.48541453735846,-0.0463313297145446,-0.0368205563844075,-2.02631818972165,-0.386384448257146
770,-3.59409863372615,-0.00685163361715124,0.993618562025723,0.0105501873538135,1.34817106804343,0.0594300396543439
771,-0.755049358409923,-0.250634681425122,-0.122844634622838,0.699587493297518,1.93680987144913,-0.144486007797389
772,-1.86891328740373,-0.794588187626478,-0.43865328426005,-2.05638382786811,-0.95752595508933,0.288373141595819
773,-0.450886361412893,-0.302018046937946,-2.03567063245072,-2.49284961052864,-0.915463024566363,0.473884938095187
774,-0.0257720374756426,-0.43207737390904,0.503945123692574,1.95417931263708,0.804335829613581,-0.261246049630065
775,1.12969737137081,1.62762834241709,-1.04810935294816,0.744963963855346,0.942885809070326,-0.430789391731584
776,0.506388445088432,0.0316081168918808,-1.08119255438855,-1.15527597067083,-0.513970351622951,0.345496448172651
777,-1.44232014403124,-0.144845657438886,-0.384795353178391,0.165876364307882,0.306625542574772,1.42413994369327
778,-0.00629518461201957,-1.04356771942473,1.19417632061764,-1.14789901597143,2.06772617097477,0.385168322797018
779,-1.71741009257442,1.59304921530091,-0.625045923675356,0.740157489176484,0.838200382925793,0.563957909198461
780,0.520667698801029,1.29623909967934,2.89037987362289,-0.0240116849317677,0.0106776661973902,-1.51168936238853
781,0.0808114440230591,-0.147563709947315,1.2762854179225,0.740455244004516,0.990463786353538,0.849350405913049
782,1.30466045943706,0.622166557025133,-0.0181219031926273,-0.118055905782731,-1.24083476470743,0.334919370583075
783,0.610292457394772,2.13340779214714,-0.344323996885566,0.499790866560368,1.04973229672837,0.646190127520052
784,0.420125436723556,-0.82539877852204,0.938304828563236,-0.134971594218408,0.536898894088207,0.575486500948707
785,0.761386733971401,-0.464155151800797,-0.508845549532114,0.0944528960077945,-0.161008174510724,-0.412385826915385
786,-1.13225973944388,-1.75191154748869,-0.0110599339253604,-0.31729013266686,1.07500811917695,-0.440982580752694
787,0.0487150172158328,0.871553557089804,-0.292146339304225,1.43213173363983,1.29286406348756,0.707283755177139
788,-0.384531792229352,2.76519311123174,0.616520631860254,-0.798470904641702,0.682998885709561,0.188384003047337
789,-0.906281766853981,0.0176703902113068,-0.950018726184318,1.14717713749312,0.266752328455261,-0.762049658728385
790,0.982630208574705,0.13134518526881,-1.4828979490211,0.973196468094002,0.662151803250052,1.16662135408721
791,-0.511408872185162,0.0717950937174622,1.53121965232744,-0.164727372753003,1.28979966132823,-0.975741422794148
792,-0.205469911862051,8.02496899800491,7.54016896896979,1.27219436578655,0.263403541946767,0.641817702699902
793,0.806020865987967,-0.778751281812941,1.67052323100792,-0.913041677794252,-0.0712904560129883,-0.0752711036014628
794,-0.691164304146695,-2.10838031173434,0.498364310003048,-0.155826157181185,-0.241915800279516,1.76696751318699
795,-0.650778925214609,1.16574828273109,0.38274281280617,0.664409843620894,-1.21428720064145,-0.219371667858153
796,0.315780826571881,1.40901520414695,-0.11969376198789,-0.361756909761336,-0.0519631736919607,-1.51792763205682
797,-0.557048748190788,0.61927234913761,3.42768516568882,0.682730506472105,0.0795600144353803,-0.401610154295252
798,0.567454872676734,-1.16803902795528,1.51350172544937,1.21768262038124,0.0618215396259207,0.679522883834216
799,-0.129508188249798,1.17549813032771,2.0279540249239,-0.820666028135298,1.1925556958378,-0.158718069362644
800,0.134888439059777,1.62149437041634,-0.728179580255601,-0.661038986321269,0.832791877504334,-1.1297914490512
801,0.671006828225121,0.770860917131376,-0.978348271263882,-0.757949286482563,1.72399400880507,1.72753990286362
802,0.258294860423241,-0.443886631608492,-0.522534866404986,0.91301023140574,2.379302464619,-0.8045508003745
803,-0.806275531792165,0.469174783374577,0.261914112707794,-0.428377111660237,1.53123510113748,0.378131055235609
804,0.905332805001533,0.683387966405251,-0.493995992559271,0.479074480393278,-0.0654206239710273,-0.345888786542134
805,0.929930044063335,-0.5123633572906,2.43385204776604,1.1195647597806,1.65561531319993,0.602409769955537
806,-0.238389356267969,-1.32665116214244,0.031034784961574,-1.08750074540009,0.472873772279223,0.273245026769805
807,0.646780552728836,1.45305699308447,1.10911873397357,1.24607429196936,-1.99321046090984,-0.0686240225738823
808,0.2863615038494,0.80120696377772,1.24719169378803,-0.112946292934141,-2.85816186524077,0.857949115364679
809,0.718244471428273,0.849972466220374,-1.92741337256961,-0.149180655395645,0.345691115028263,0.872395595129854
810,-0.740717033767842,0.458327349483451,0.299686290980152,3.25674940247787,-0.981227279190614,-0.745861431409446
811,-0.126424436589402,1.18612987909565,0.698714581539808,0.443214204148237,0.0862093717910995,0.424502306577066
812,-0.290458029169772,1.63611278142214,0.161347976792618,-1.34283098505514,0.415808455767188,-0.177355974845223
813,-0.567072807314668,-0.3742699546368,-1.69257603918212,-0.670754311969257,-0.875868776651307,-1.08370574292233
814,0.104071100407872,0.0513102521540202,-1.30838031401179,0.46471201783689,-0.31181258728843,0.806248005369342
815,0.292795536370978,-0.484346838013832,-0.414462688819596,-0.297240656506076,1.13905720337332,0.838682309063026
816,-0.210234439230028,-1.93693348868565,1.55688850532127,-0.500929751216154,0.642652735513448,0.30442558796363
817,-0.191322462452186,-0.434663626908289,0.205742159316849,-0.827821475267176,0.937553242644897,-0.672511087053446
818,0.372043298411501,-1.06314404075889,-1.90071425823548,-0.142106502326801,-0.265089139477785,0.00825645005730188
819,1.51825423717447,0.764960705341389,-0.93805003888577,-0.348789394095029,2.14826087472207,0.175815041094125
820,-0.71683158049782,-1.41991394968259,0.160504678064889,-0.224850503984824,1.17514691906812,0.285887921892031
821,0.0986397794691378,-0.248720309220491,-0.680340401360741,-1.89444123840743,-1.63758030280942,-1.07945415121303
822,0.509470623163092,-1.58461933767765,-1.33819602317477,0.350271503562991,-0.154895810559069,-0.353818610644746
823,0.511354526611264,-1.54076429703113,-1.79210457112449,1.43365167230993,0.141113022480178,0.622483747780199
824,1.38289679533002,0.607221296430393,0.0955205790885486,0.120345892476845,-0.497125144707781,0.411327344931114
825,-1.10010993625299,0.0849090673481702,1.22729967068771,-0.0708316138992217,0.340007264559108,-1.76764087596415
826,-0.837587863498285,-0.384761095359008,0.872943552133384,1.04397514242325,-2.38161897815706,-0.0456723193467389
827,-0.172330633141293,0.13989583588736,-0.812708884981538,-2.14595683026428,0.401192443639697,0.598667470205387
828,1.20224024875439,0.266687384933724,-2.32454467493248,2.02950213319836,1.20496337365859,-0.70166411206993
829,-1.00664426036024,0.923732350877133,1.91298081574857,0.365516693704245,0.12281040663328,0.140080397825625
830,1.78841011244017,-0.652653514515863,0.212482149335782,0.229994608113255,-0.87086992361988,2.12938162962744
831,-0.621113879188662,-1.16138811010416,0.8423757290425,0.693814033030732,0.952684269562256,-0.780782545459474
832,0.55387561576675,-0.278363408165498,-1.06523904374275,1.44561150225815,-1.09946751175391,-0.369888799416458
833,-1.33889039238636,0.964023694549683,-0.589023669508796,-0.483305023804018,0.270770228887829,1.23876660552876
834,-0.884828000331625,0.640709214160092,0.424833169769162,0.61337755046014,0.111904634754858,0.69326650418826
835,-1.5578319271657,-0.111315266479677,-0.640505930962932,0.617924295770846,0.911627831370859,-1.88365527733587
836,1.17677644987242,0.803462699683628,0.215583967680946,-0.281893610329355,2.55763884313587,1.86201946498338
837,0.267754748872094,-0.197257246533339,-0.923458706048024,0.1261953643359,0.398798194372098,-0.338929130117927
838,0.208760291375228,-1.24255137579572,0.853441668325723,1.65557951662324,2.16558436740293,-0.507122477415563
839,0.776024991941742,1.74503512755757,-0.0161025061608866,-0.179260459976455,0.616834244044071,-0.531992922526273
840,-0.592298812684255,1.3095125844418,-0.0459601521855907,1.06493872100632,0.81288790768532,-0.492888159248362
841,-0.881200719796886,-0.393799007764954,0.276172189774247,-1.32207199179733,0.268589962685345,0.614839110381916
842,-0.0753643955295431,-0.370041731954736,-0.901488468530081,-0.0538961887801528,1.47265514804754,-0.508585018184703
843,0.972573422304598,0.292607361272413,0.957836730687021,0.206967524587455,0.634560895859476,0.540381301913207
844,0.601793960835247,0.570143041980012,0.381687895219494,-0.0908988385490994,1.17723928776538,-1.52550137849587
845,-0.989618734117013,-1.19467933363574,-0.274044397809277,-0.349981032794529,-1.65783085027322,-0.52936889251295
846,-0.687694586502753,1.29186226297873,0.413789334072091,0.669259844575749,-0.738031190887757,-0.22424015109276
847,-0.398633760346263,-1.11827502541087,-0.32109986904947,-0.386685755874931,0.691750501990574,0.959220570109574
848,0.891131751923605,0.910211966323454,-0.90736467420119,1.06980782528986,-0.222136194542895,-0.715588155331338
849,1.849720654821,-0.222715969010862,0.999135113027495,-0.662912042010173,-0.243172662897145,-0.177777091522736
850,-1.26968467111803,0.436294671951753,0.462468253607486,-0.305617449419748,1.78739446558247,-0.317165563911174
851,0.728859064299703,-0.0115047818323537,0.606140378022174,0.0892263836897047,1.18015290413228,-0.46444359420125
852,-1.8321141190366,-0.160840289704019,0.910768973481721,0.127634781675464,0.705368892185023,0.574010613805544
853,-0.944525687429517,0.371888577551455,-1.14776552282025,0.328268863535864,1.68622341132434,-1.03866808265985
854,0.037987267286709,1.42589415686067,-1.44808373973337,1.65268482078498,-0.617368304382801,0.248243830566455
855,0.568009441431412,-0.0346370972980398,-0.144564393416096,0.922341248034569,-0.563118206488567,-0.183695059184143
856,0.43816990345894,0.201193739610824,-0.350552396123358,-0.214840072605464,0.276409475875342,-0.885442999989081
857,-0.306726716830582,0.59205157055763,1.05404988642497,1.11603834953132,-0.505609677040025,1.98810816276228
858,-0.0625334297360325,-2.05565192201897,0.774851530727508,0.87662538771751,-0.174787695058035,0.225295837037229
859,0.778725431091344,-0.841349836190047,0.669952666450859,-0.29198612142553,-2.85229729990564,0.0826699436506899
860,-1.72181542421703,0.32798657101397,0.0630524235795918,-1.09579598258508,1.19734717157576,-0.653568788748171
861,0.787746362704751,-0.680715535896543,-0.48577542105433,-0.0187657757875029,-0.837939297611227,1.29470049796773
862,1.25540749937234,0.906088642750762,0.0979971275046851,-0.00762898919783737,-1.60423815646897,-1.079577126864
863,-0.428980475532435,-0.823808656795582,-2.19302439833394,1.49543625317106,0.112444957074312,1.2773246227517
864,-2.31730838749427,-3.85456147344892,-4.8091942589108,1.40707914454471,0.830472351805552,1.38939276393866
865,0.775115550229105,-0.0316926571413503,-0.573671352156707,0.332169021431999,-0.235382475041894,-0.916418675609337
866,0.515137498013733,1.373604029281,-0.661973027432444,0.434457581758361,0.350894611607811,-1.48081373962055
867,-0.777664849553069,0.000450804111269854,-0.117159168443246,-1.18052065266365,1.49708033825667,-1.10902319680826
868,-0.966008044151431,-1.53123245895073,0.70613728775162,0.174925902198257,-1.06991182492346,-0.17341312809689
869,1.25097286696495,0.232972151051795,0.0266843504707007,-0.0733921142114617,-0.480851923963825,0.166177548481221
870,-0.520347460235374,-0.587066868951263,2.10948611532148,1.12304377575246,-0.561760088499342,1.70460127678249
871,1.34482745886838,0.537839054138966,1.81170438158008,-0.544232348662566,-0.483005144529189,-0.866567337211355
872,0.98806636721083,-1.86029810661208,0.25771620750689,-0.898731301003802,0.489551756086563,-0.180152744825658
873,-0.997214897074307,0.0850662143256858,2.04582133999804,-0.592886982247294,1.39536780975838,-0.460722744239854
874,0.176150398548786,-0.0104033210545921,-0.361101471092202,-0.241152031647758,0.965762583446028,-0.852236917174411
875,-0.40373830030799,0.0824334303141076,0.389911844376338,-0.277123374342938,-0.600046740954276,1.64161868941505
876,-1.65684956093276,1.46686848818191,-0.447572156714992,-0.225424697493379,-0.0800284488961611,-1.03684633091124
877,1.00339619733052,0.379539826789867,-1.75662759952876,0.480540178767507,-1.97606222626946,-0.469622449159938
878,-0.69032838347714,8.58214338704257,-25.9796220753421,-0.340665957473057,-0.565334166529595,0.831691345215246
879,-0.550062776035782,-0.920499016298343,1.10340746295025,-0.248471965932432,-1.8669698122944,-0.260787460221723
880,-1.47953945619383,2.03223151462798,-0.8851618265836,-0.913001310341532,-0.979210648404414,0.0243119238625631
881,-0.328403961216769,-0.0854668348194706,-0.338955874124567,0.36804302896939,-0.923400030749965,-2.11736761363926
882,-0.363282447025128,0.0286781497537534,-0.736236904386457,1.11026797530295,-1.7871401808682,0.0899549710337303
883,0.587873908504798,0.211648016315929,-0.836212030479469,-0.337916327667445,0.20691004713991,-0.652490220432555
884,-1.5948379725211,-0.426571112114234,-0.539449735920868,0.582574767803007,-0.249673049959629,1.89974361645888
885,-0.525514739163732,-1.57784544015848,0.0197448379596589,0.721870596736359,-2.83241327312408,1.32587627008659
886,-0.111415369297635,-1.2929927592763,0.309344993420217,-0.517852087551778,0.537593552987247,0.647910109076078
887,0.639575241249196,-1.36781027907416,0.483794178972157,-0.71257349932622,1.33179028369287,0.839404822796987
888,1.17416587850866,0.580930073377245,0.853235431373541,-0.0857895886362087,2.88455567628049,-0.569055767766129
889,-0.306140953625041,-0.831572347447423,0.421137340547674,1.470922646817,-1.52019586552979,0.996388416976001
890,-1.61375138443413,-0.395198475405552,0.0120717614811961,0.922897472366004,-0.980151084052556,-1.88984461795368
891,1.61720310509991,1.28635707013463,0.832033370229663,-0.382089914913143,-0.317929305836164,-0.261212337538225
892,0.890663697632207,-1.93147000975377,-1.09726791461929,-0.516392202554626,0.543127913263025,0.796667445664679
893,-1.34160710852405,-0.0708603644665252,-1.22719896079024,-0.73920028736121,-1.27509841807775,-0.214767999381018
894,-1.89224130853856,0.722140181261746,0.820653668032214,-0.222687137061434,1.37093057101362,-0.94052485603987
895,-0.176209656192458,0.86358649730536,0.398046397626022,-0.639809099247488,-0.478771981994832,-0.0934920052348017
896,-0.372771647895446,-0.904094007567251,1.40727489997452,-0.145924773009698,-2.19269658259707,0.0438661686946403
897,-0.570304644146399,1.28292867142685,-2.59544168944204,0.960243172444224,1.15226848849999,-1.15721990070617
898,-2.19354154639959,0.078372581676236,-0.050862526359046,-0.760094483509672,-0.268413118283884,-0.794313662791273
899,1.64247835781108,1.17033743615889,0.566292545682085,0.459501714990447,-1.51796780982477,-0.0786907952614926
900,0.0490994809807978,-0.504872392751464,-0.926443527569835,1.46812963598723,1.38044470225898,-0.204953699708252
901,1.85211035330958,0.301300016379282,-1.21987075095301,-1.8716597119485,-0.2644232275863,1.61192753317729
902,-1.25559576300619,0.590629732221148,-0.965321873491599,-0.0732385243202934,0.929711099452998,0.104494824613989
903,-0.98210689881193,-2.49126877122805,-0.784563316323467,-0.250356425115127,0.508534792262746,-0.295254019759983
904,0.427889476605164,-1.08960037479419,0.995361336469532,-0.858115464717788,-1.08330440399397,-2.05735034201633
905,1.81871048728296,-0.100262542564684,-1.63000826646714,1.82307131483784,1.01757264555647,0.576911908897737
906,-0.725571424339212,-0.744327303695765,-0.219067925474883,0.886867853673002,-1.0620023783996,-0.679846788392967
907,-1.14393532212246,-1.11648583974483,2.43860752308122,-1.65368721397338,-0.806894558533488,-0.759517756978416
908,-1.38319602302675,1.29917894779386,-0.706016328203942,-0.507483253299595,-0.0181252921075916,-1.29407949919627
909,20.9308795433093,13.8571120027943,-8.31772611597799,0.597449107011588,0.0791789626234297,-0.023470895121532
910,0.220621233919725,-0.974717922545732,-1.52040233807737,-0.176801420535333,-0.322629518304683,0.302727652849391
911,-0.284710736517558,0.727773039951757,-0.169919137744706,-0.849358524770507,2.18940772215329,0.150996644607135
912,-0.301849868295022,0.161159940880195,-0.0640761582072597,-0.752575560731733,-2.36339073848794,-1.29244918380756
913,5.73441533837544,1.22363745853761,-0.196386484053618,-0.699065052012222,-0.726960775472783,1.32556772319356
914,-2.11450352363187,-0.569660767321128,-0.174018749898997,0.205528987547496,-0.0413823925081496,1.4718377953437
915,-2.31556688228012,-0.918207365071667,1.20527050593292,0.380124001211352,0.69908471886927,0.71570806032031
916,-0.231974092911119,0.59024523555862,-0.168402788598375,-0.732999613823063,-1.90155064328121,1.27861428645637
917,-0.343364418091378,-1.37312521327611,-0.535320318336898,-1.17465284173916,0.436828939500209,0.651210769742318
918,-1.8416798284962,-0.615598873314372,-0.0374251577720174,1.02800891265047,2.53477317688263,-0.335584849007908
919,-0.450446981199467,-0.623405198646131,0.490968654437512,0.0324021633614113,-0.0322842868354349,1.78680071496801
920,0.493840714800394,1.2755232304903,-0.669399645470072,-0.140137925433777,-0.939246462941865,-0.0871457191758872
921,0.33758593030297,0.470994615094125,-1.41471510911175,0.474669696653242,0.206076259332588,-0.605183735316964
922,-1.04722003340078,-0.31131137414037,-0.136392126164492,-0.181188937255751,-1.42078325535605,-0.969619497900782
923,0.0850736344443166,-1.17844764616345,1.44312207192039,-0.17511307520797,0.0947584293567424,-0.92485113029272
924,0.946485361046945,0.784985213334104,-0.908545090751027,-0.350591703564513,-2.35578281864182,-0.727851523645711
925,0.440489086241277,1.74407846093475,0.492579845246848,-0.23277404557276,0.734357628526076,0.53058392018578
926,-0.627750944389689,-0.555897950031398,-0.251083814726917,-0.967140705023639,1.42925527849801,1.2958859601338
927,0.227979269264629,-0.866235815456259,0.751380132095294,0.17311155796908,1.76875829605706,0.365733957328355
928,0.860832193159346,-0.263535381928674,-0.412514393627548,0.116108600184023,1.10233632163178,0.619776399804864
929,0.206549907419377,0.826088078883562,-0.85675761012956,-0.340614376042536,0.392956291994294,-0.471014202285558
930,8.10727022963773,1.91091248474502,-0.574387874468968,0.295735025300233,-0.766254292464873,-1.37417637726847
931,-0.913489187628395,-1.77009958355302,1.40675066112321,1.34894406070783,-0.578820790573967,-1.4258820951739
932,1.07572016206683,-0.166042182963231,0.778390207005199,1.24359506731532,-0.919843780531574,-2.37692115093734
933,0.388851496252607,0.328539012471742,0.537675446633844,-1.88208591649506,-1.40556780747916,1.00697529436762
934,0.481841774079238,1.32376285625688,-0.463716834549712,-1.36102677304013,-0.333953985106796,0.295970157664492
935,0.118187614440645,-0.253672252970679,-2.40070777138011,0.278097452041415,-0.964731611233944,0.493315442794984
936,-0.481274755668697,0.121109056227003,0.136029866906874,-1.38814932119267,0.369882062506889,2.83148873222137
937,-1.09824371807726,0.732160666950802,-0.258954383339053,-0.750647834985022,0.79665135851779,-0.481528259087595
938,-2.33929465603672,-0.5547179448059,-1.98539498556307,1.20547786489542,-0.0374128902080918,-2.51538311482283
939,-0.256699114753913,-1.07470140455533,-0.556993598709347,0.0477165792277841,1.76054143997658,-0.553368655320773
940,-1.69991359836035,-2.28640913238253,1.61771752673986,-0.400544159495106,0.97954210383608,-0.00912552532280111
941,1.00066565794799,-0.332267379693373,-0.335277731192694,-0.323090547224152,-1.34653765804241,-1.52791417987689
942,-0.198389172149164,-0.180466086816953,-0.361139678962353,-0.191965120140399,0.451841505557478,0.981460334552614
943,-0.759620780537785,-1.27095802825819,-1.51403421981808,1.51247470611278,-2.47074717559906,-1.91000986956476
944,-0.469048104340634,0.412694519050572,0.737368205853775,0.639687646784192,-0.716286812362162,0.296998205064107
945,-0.983973698634989,-0.673769812438722,1.36356542477895,1.4914808259141,0.219493741515492,0.329962559952527
946,1.509719885486,-1.12236938371647,0.797160755118863,-2.22562350578349,0.0753900987345425,-1.54177352052034
947,-0.316988189870121,-0.854789567967022,-1.57355798175081,-0.662625582462745,-0.462237018082519,0.379733470489407
948,0.726823966513548,0.738864444274936,-0.236010109838363,-0.118710058774428,-0.708755301750999,-1.15648262975039
949,-1.16077561754438,0.140789551647143,0.0157203664107846,0.298819707768729,-1.36758478135454,0.254136317675839
950,5.14903866518759,0.672550202681779,-3.0898135575195,-0.895392273571839,-0.478162315175877,-0.482228657987792
951,-1.10275375556866,0.0242027547485958,0.380043977649531,-0.923675135059879,0.180919803480013,1.76309161846142
952,1.05027279282162,0.584756857193131,0.20568526473489,0.488506455376269,-0.920335204081042,1.71989613220427
953,0.304090055378836,0.723359469699018,0.0462279397061835,0.10509114804733,-0.122500202601266,-1.25065270516328
954,-0.966480818356893,-0.550811070870699,-0.133602136795745,0.715879943896956,0.157462898483175,1.39150897175038
955,-2.40775413992522,0.53597355303112,2.48554974823843,-0.936296909946044,-0.300276731878813,0.763858917767457
956,-0.413025762699511,-0.105532246228241,-0.256215263012948,0.182054811596298,-0.342659687102522,0.853055861266591
957,6.63114383056631,1.25759730719127,4.97688731579733,-1.50808483920015,-0.124965976712657,-1.05139984554839
958,0.371509574567386,0.825594897448618,-2.01630090655576,1.98846521642022,0.441159248944963,-3.28382919752271
959,-1.07226772832977,0.473465002576769,-0.101322821132435,1.12613444855739,-0.796707807271106,-0.564447803029729
960,-0.594457451225034,-0.364749023633437,-1.13323877179213,0.590784929207577,-0.158022796667179,1.26577647679545
961,0.00763117860973945,1.75601748082099,-0.424748482507785,1.41557519080188,0.548494919070157,-0.810316605849364
962,-0.0670012595251228,1.24901944329568,-0.638621683324993,0.0190052597652201,-0.499636500859835,-0.188751057042055
963,1.6018180522794,-1.78961497776174,0.345759951105158,0.0853725148697013,-0.446265059919115,-0.148266298748409
964,1.71704836773779,0.400195802801748,0.4304820599129,-0.19623707707981,0.542601519478798,-0.115839192595217
965,-2.05550677768082,2.12548928271383,-1.59823347095704,-1.41479841973031,0.915273583523907,0.668239706174768
966,-0.446312198462699,1.81668292919791,0.337185406328539,-1.41829116068637,-0.287077979458877,0.887204190841511
967,-1.30666569741498,0.21414348555058,-0.647218796491826,1.56418432530942,-0.26166058270485,-1.62960735405192
968,-1.32561886769987,-0.0106072486801163,-0.160290320089386,0.355039867597698,1.83094795851174,-1.5504388470833
969,-2.00879899794515,-0.0934097576909947,0.02071952668222,-0.297823793896201,0.410722724045008,0.0897868475114869
970,7.23905726965885,0.00780443153135635,10.7240343875487,9.43683912451891,4.47325159058061,-3.18969264456766
971,1.79589466056201,1.26517808971511,-0.206411494091855,2.61232172227875,-0.155428288234334,-0.627347015407223
972,-0.407263309421174,0.58567643041299,-1.4545817806366,-0.614381592757346,0.680859210302929,1.25610106019128
973,0.397863781985052,0.385855423321126,1.30784544296767,-0.113757751936717,-0.12974760137853,0.188992985083447
974,0.908260100285842,-0.820656454039595,-1.51913569624669,1.41311250270803,0.348088630991116,0.112722094454457
975,1.56229523657878,0.0244096821020101,1.76778696025396,0.564202094531142,-0.102832678391926,0.0845116670581726
976,0.80859734911857,-1.40075720211188,-1.74127027245263,1.89006344393799,-0.395707064371164,-0.94332417941906
977,-0.62922927170433,-0.584429292340968,-1.04030839262085,0.19458831888644,-0.192028547346435,1.32606244396276
978,1.68934468617691,0.555690496952067,-0.676454482457725,1.86890839423333,0.270265909189549,-0.99029761483841
979,-0.257969165241589,-1.63675666091817,1.51345689823248,0.0178571730816389,0.428577037595066,0.825761660445335
980,0.317735143352448,-0.179762211629646,-1.12802625866564,-2.48714794272117,-0.549366127449344,-3.00327880626623
981,1.00909099302927,0.0412973030622424,0.0239413856009963,-0.114498847738062,0.912830572127947,-2.40600790516491
982,-0.154701779430455,0.555683895205575,-0.318188971261745,1.53623922345196,-1.65916028202979,-0.551912786867717
983,0.290656204851809,-1.84907757734254,1.96976666052383,-0.865513712008551,1.41940823133674,-0.127946797643227
984,0.128574671015766,1.16311090445516,-2.00264208112412,0.86794114982555,0.13619051302136,2.18933616857743
985,0.209717357705706,0.315268866183524,-0.422720681486559,-2.02784144355824,0.276020362227963,-1.51632114307867
986,-0.887376421380819,1.33118889781857,-0.11783959254498,0.494015020645789,-1.21037697790214,-1.30762133021759
987,2.97597629201286,2.83041791117626,-3.12041917353637,-0.824071373695372,1.07153596315248,-0.027097094014983
988,1.07373025717841,0.101072369246058,-0.355866652388303,0.875172604847753,1.99852931362516,-0.761175242788106
989,0.58593161177887,-2.20734371610233,1.49686983420417,-1.15850105550261,-1.39504312923573,0.139281792348638
990,-0.177518625959112,-1.67456943256463,0.830928904249957,-1.4567629547277,-0.570987936509246,1.68506350118513
991,0.0363973582205153,1.07147187815769,0.854159007341894,-0.366285555261133,1.56239873128178,-0.0774033367905704
992,-1.02508951194662,-0.557769144092036,0.496631925816461,-0.962807675265613,0.0173167045751581,0.27299989663576
993,-0.0799930224878946,1.52851422711901,-0.442820550260132,-1.51353324514941,-1.70232395535706,-0.513404043858075
994,-0.491503578981082,0.405041689361413,0.23901136977883,1.79172353075954,0.903435233020484,-0.272350041607761
995,-0.992680474840596,0.99486972252773,0.600682231873934,0.384302567798237,-1.41373339450645,-0.275227442655223
996,-0.69142025473748,-0.38871241819341,0.255682410658194,0.598895438352158,-1.18379359265792,-0.313294013140453
997,0.0710798268674903,0.241962389039318,-0.224242961214424,-0.763025768514341,-0.353787964821567,-0.761032102042843
998,0.90706061599275,0.234802804854266,1.2914938567807,-1.01269925137473,0.159478167375418,0.544054542170965
999,-0.600484110354453,1.77902881630377,-0.0574792911845841,0.894809493044607,-0.391899787415259,0.918738114999421
1000,0.541346673301325,0.351507037499371,0.063674761813794,-1.41171421318466,0.350316386298606,-1.05851590734589
1001,0.19608916560993,-0.0147058775395465,-0.06159249500737,-0.938946305804485,-0.34451972712751,0.00770716028713951
1002,-0.552318074789301,0.0812414757006485,0.786052362901824,-0.0533371530505007,-0.115728147413835,0.809244823264434
1003,1.19241064167053,1.86474954462624,3.96250035895992,0.436146961894697,-0.293943390080922,-1.75408423480499
1004,0.154220122854533,1.53948400867291,0.182440376367961,0.558745227051125,-0.969158997290452,0.0562610490004366
1005,-0.207590392940193,-1.25621852854383,-1.27216498814396,0.050710285333813,-0.693495931338025,0.440829658622536
1006,0.260422223526688,0.4012116018832,-0.0301313241551252,-0.420808185588167,-0.170493425184015,-1.39353964220641
1007,2.01308374342234,-0.24899369313737,0.569325389119727,0.897610983721514,-0.528233908191719,0.0112686924140734
1008,0.673646659948095,0.855022202728078,-0.892234366772912,0.851115767746889,-1.15556343769973,1.43374890550545
1009,-0.422325438199962,0.30561170466572,0.462565890277631,0.209194970400815,0.349198520071587,-0.470298130115782
1010,2.98978304805338,-1.00213575124646,-0.0123780237663103,-0.36860601887786,-0.621420851463543,-1.33138489372367
1011,0.192989662082809,-0.377125292986866,0.00389870067508912,-0.685361872942683,0.966252098934826,0.53234538737781
1012,-0.544768389157155,-0.470926405490918,0.460310619091728,-2.02052373616584,-1.98129265540658,-1.30472758794259
1013,0.35717603792497,0.681547064972661,0.419829699097907,0.785378066201552,1.11150879048826,-0.629676912811994
1014,-2.92893961598288,-0.331408341612852,-0.0250789096819672,0.795480369123415,-0.874875856820729,2.30189858534119
1015,0.855016154509713,0.606504951183301,0.27660227234345,-0.0625055419030902,0.0706544639765591,-0.424628761677042
1016,-0.369209502906521,0.0426771284535816,-1.55647172404582,0.199859626585762,-0.104260765606432,-1.63795182039871
1017,0.177681862337082,-1.89682972768021,0.107919121070306,-0.650990058600457,-1.22640011025034,1.08654186954626
1018,0.971064395501015,1.23746831315305,-0.965704171924455,-2.03530688713629,-0.978679911067806,0.999968451995774
1019,0.0797410534856924,1.00581826448052,-1.52614417154252,0.803676550501666,-0.979004960563487,1.6139669281343
1020,-2.23349772384203,-1.03876324477678,2.22084713242232,-0.677179718702563,1.20959391464868,-0.300085302964975
1021,2.0605805858103,-0.451174403174884,-1.2456736943711,-0.655020070340116,0.588736611077728,1.45789213696279
1022,1.27019672556243,-0.918921124804777,1.42574455994468,0.466818500065853,-0.52171449829369,-0.111971294492732
1023,3.22062138978242,0.333252849599034,1.0316532175721,-1.807158917635,0.39226841318322,2.20872250265026
1024,0.222043118015283,-0.201356224793842,-0.309244525104394,-0.0125603817510028,-0.0995070816254375,-2.12568638168968
1025,-1.30047128890201,1.39959196035871,-1.9814931271045,-0.811339720152491,0.0346342500201884,-1.05791675857568
1026,-0.216865919740085,0.855061377940681,-0.864512726144835,1.17642363134385,0.439117422443035,-0.366964858949293
1027,-6.68410293562622,-10.8812930464349,11.3363606942985,-1.88047925201735,-2.79932119221507,0.64827911568704
1028,1.88395824079516,1.46677717005079,0.344604396909577,-0.983248588702626,-0.216580717681012,-1.47018556289817
1029,-1.48937737990608,-1.45286894154581,-0.224218312750473,0.655405724970875,1.00884169753412,1.15899990776697
1030,-0.829626706974497,1.62221643555936,1.43100884466009,-1.1052499744257,-0.763085785492308,-0.915945655809155
1031,-1.07571220226254,-1.38427996248177,0.619717453182314,0.786198737760345,0.226256644425462,0.0728145778540461
1032,1.46973725397595,1.26202280251316,1.30031082997097,-3.57320268577478,0.60817580150164,-1.2676599569855
1033,-1.47920837980463,-0.633619483902395,-0.99412348691968,1.36794793792243,0.528252811149824,0.566179515986373
1034,-1.16275349425557,-0.356171425348272,-0.613856946878691,0.261366845778938,-0.884326119778594,-0.910146793342597
1035,-0.731707693377123,0.281177823378745,0.985136112726725,0.132785036698684,-0.567629650275006,-0.605854173962907
1036,-0.573064564458502,0.608947174190656,-1.05049079721009,-0.351762289246984,-0.107920686337481,0.360150425286046
1037,1.32388426253353,1.58989231087129,-0.686577702964573,0.710553934581776,0.861769965372501,0.476950828559004
1038,-1.75491131523322,0.329782494564405,-0.948613589708689,-0.336820554873844,0.302919342214322,-0.490169497854776
1039,-0.927637901500234,0.632418725043405,0.636942584315022,0.75198900749131,0.63875953977219,0.0714565534290953
1040,1.08968268899532,-1.66360864347624,0.723733576153548,0.26505678776296,0.187164093602958,0.249288352100583
1041,-0.656041508700442,-0.0406424084292378,1.73598813985906,-1.55196334729265,-0.642730336689532,1.63035855021129
1042,-0.539587194814393,0.755561714748483,1.16299037638903,0.025606580808984,-0.649051493874267,-1.05019110190461
1043,-2.61894904920629,-1.27404822794299,-0.706110854711665,-0.150889581447207,0.829878986389335,0.800184984505696
1044,0.0873919446251454,0.802887507221659,-0.0999212370106379,-2.57757786902509,0.901665970837143,0.586657365267551
1045,-0.238099518230138,-0.265883373779003,1.18436974794165,-0.347129755787681,0.568948006607874,-0.0836312952473319
1046,-2.65124518163744,0.308567020604469,0.547687902617751,-0.851736660292226,1.18991381535229,-0.829356335709386
1047,-0.220571631106481,0.440714072283452,0.261536431678799,1.26768198119321,-0.230079604093912,0.791442038462143
1048,-0.899600604542617,-1.86037552575503,0.829828818266291,-0.565912235117116,-2.80684200320431,0.805827994270441
1049,-0.088127605104434,0.790296379333747,-0.207095262106117,-0.000633032220682415,-0.410095044129056,-0.631209946094233
1050,-1.53979642249977,-5.05548374888721,0.416701186109363,1.31006731066826,-1.06726325103062,-2.50657570390216
1051,-0.580255562207481,1.008390527035,-0.292945476017052,0.83651365833387,1.79649594451555,-1.54861890327683
1052,-0.896111291263605,0.981343424429165,-0.336995026168282,0.291712279377627,2.08195262921839,0.466242804677758
1053,-2.07207095662641,0.04505126204859,-0.375570659800443,1.00931678119101,0.288932113081648,-1.76542236903648
1054,1.59596838434311,-0.455482560722638,-0.787532127815252,2.703572201271,-0.866446079863317,0.412522449717076
1055,-0.913199883219316,1.07407206535275,-0.45298067035763,-0.62948066364152,1.78874598323388,-0.743581812098195
1056,0.068369086549099,0.400588818586797,1.02799653832227,0.526604226002556,0.874706978275316,-0.305333582601
1057,4.6076853441993,0.0136997173089805,-2.12121926451804,1.52866927185108,3.52869317388102,0.266164508794758
1058,0.240555938019895,1.41330946492991,0.110088745092687,0.504574650477727,0.122097993234399,-1.0659137627906
1059,0.347157411535097,-0.212944184583393,0.405963115859842,-0.0365091161063259,-0.460874726987328,0.407489442297582
1060,-0.645673793124811,0.191423658164767,0.213074488596379,-0.738836115457165,0.477511158139767,-0.58813235277289
1061,0.432148170358606,-0.59780693897133,-0.872706246576928,0.591739549104298,0.527782773645979,-0.237915635145356
1062,1.05400428054173,-0.964067580238141,0.102545532386022,-0.195733907078196,-0.368379565705732,-0.2061795937685
1063,0.259735133551617,-0.236758003369689,-0.384828578012407,0.230604329789995,0.967781680971276,0.843441990383729
1064,-0.764159775370663,0.482720521503134,0.146728696729685,-0.598685590868904,0.69425920589689,-1.82922297591691
1065,1.4483967192493,0.327234601469342,0.654862584797375,0.602576125088883,0.654245075543191,-1.52029836710995
1066,0.79499802486843,-3.36254888399542,6.3192949261029,0.516938871565086,-0.429025814991761,-2.23846744619494
